songfilename,SongName,Speed,Condition,fileblock,testdurationsec,songCondFile,CategoryType,NumOne,NumTwo,Correct,Incorrect1,Incorrect2,Incorrect3,musicTypeLoop.thisRepN,musicTypeLoop.thisTrialN,musicTypeLoop.thisN,musicTypeLoop.thisIndex,trialsMath.thisRepN,trialsMath.thisTrialN,trialsMath.thisN,trialsMath.thisIndex,partInfoImage.started,partinfomouse.started,partinfomouse.x,partinfomouse.y,partinfomouse.leftButton,partinfomouse.midButton,partinfomouse.rightButton,partInfoImage_2.started,partinfomouse_2.started,consentBox.started,partinfomouse_2.x,partinfomouse_2.y,partinfomouse_2.leftButton,partinfomouse_2.midButton,partinfomouse_2.rightButton,partinfomouse_2.clicked_name,partInfoImage_3.started,partinfomouse_3.started,partinfomouse_3.x,partinfomouse_3.y,partinfomouse_3.leftButton,partinfomouse_3.midButton,partinfomouse_3.rightButton,partInfoImage_4.started,partinfomouse_4.started,partinfomouse_4.x,partinfomouse_4.y,partinfomouse_4.leftButton,partinfomouse_4.midButton,partinfomouse_4.rightButton,question.started,ansOne.started,ansTwo.started,ansThree.started,ansFour.started,mouseclickResponse.started,debuginfo.started,correctClick,mouseclickResponse.x,mouseclickResponse.y,mouseclickResponse.leftButton,mouseclickResponse.midButton,mouseclickResponse.rightButton,mouseclickResponse.clicked_name,text.started,text.stopped,partInfoImage_5.started,partinfomouse_5.started,partinfomouse_5.x,partinfomouse_5.y,partinfomouse_5.leftButton,partinfomouse_5.midButton,partinfomouse_5.rightButton,partInfoImage_6.started,partinfomouse_6.started,partinfomouse_6.x,partinfomouse_6.y,partinfomouse_6.leftButton,partinfomouse_6.midButton,partinfomouse_6.rightButton,session,date,expName,psychopyVersion,frameRate,
,,,,,,,,,,,,,,,,,,,,,,12.306111700017937,2.6699970476329327e-05,-0.14074074074074075,0.05555555555555555,1,0,0,,,,,,,,,,,,,,,,,,,,,,,,,,,,,,,,,,,,,,,,,,,,,,,,,,,,,,001,2022-11-01_17h39.16.323,musicalMathTest,2022.2.4,59.99358066592561,
,,,,,,,,,,,,,,,,,,,,,,,,,,,,,14.550968699972145,2.210005186498165e-05,14.550968699972145,0.3768518518518518,-0.45092592592592595,1,0,0,consentBox,,,,,,,,,,,,,,,,,,,,,,,,,,,,,,,,,,,,,,,,,,,,,001,2022-11-01_17h39.16.323,musicalMathTest,2022.2.4,59.99358066592561,
,,,,,,,,,,,,,,,,,,,,,,,,,,,,,,,,,,,,,,15.717635700013489,2.189993392676115e-05,-0.1648148148148148,0.09351851851851851,1,0,0,,,,,,,,,,,,,,,,,,,,,,,,,,,,,,,,,,,,,,001,2022-11-01_17h39.16.323,musicalMathTest,2022.2.4,59.99358066592561,
music\silence.wav,silent,silent,silent,1,90,A,multiply,8,10,80,85,90,94,0,0,0,9,0,0,0,74,,,,,,,,,,,,,,,,,,,,,,,,17.58483049995266,0.044263800024054945,0.10185185185185185,-0.325,1,0,0,21.067544499994256,21.067544499994256,21.067544499994256,21.067544499994256,21.067544499994256,0.05161289998795837,21.067544499994256,True,-0.29444444444444445,-0.40185185185185185,1,0,0,ansOne,,,,,,,,,,,,,,,,,001,2022-11-01_17h39.16.323,musicalMathTest,2022.2.4,59.99358066592561,
music\silence.wav,silent,silent,silent,1,90,A,subtract,30,29,1,5,7,5,0,0,0,9,0,1,1,49,,,,,,,,,,,,,,,,,,,,,,,,,,,,,,,23.417546199983917,23.417546199983917,23.417546199983917,23.417546199983917,23.417546199983917,0.012961199972778559,23.417546199983917,True,0.09537037037037037,-0.40555555555555556,1,0,0,ansThree,,,,,,,,,,,,,,,,,001,2022-11-01_17h39.16.323,musicalMathTest,2022.2.4,59.99358066592561,
music\silence.wav,silent,silent,silent,1,90,A,add,40,35,75,85,83,80,0,0,0,9,0,2,2,6,,,,,,,,,,,,,,,,,,,,,,,,,,,,,,,25.834190399968065,25.834190399968065,25.834190399968065,25.834190399968065,25.834190399968065,0.00830440002027899,25.834190399968065,True,-0.08333333333333333,-0.4027777777777778,1,0,0,ansTwo,,,,,,,,,,,,,,,,,001,2022-11-01_17h39.16.323,musicalMathTest,2022.2.4,59.99358066592561,
music\silence.wav,silent,silent,silent,1,90,A,multiply,5,5,25,30,27,32,0,0,0,9,0,3,3,100,,,,,,,,,,,,,,,,,,,,,,,,,,,,,,,30.017413199995644,30.017413199995644,30.017413199995644,30.017413199995644,30.017413199995644,0.006629799958318472,30.017413199995644,True,-0.2824074074074074,-0.40370370370370373,1,0,0,ansOne,,,,,,,,,,,,,,,,,001,2022-11-01_17h39.16.323,musicalMathTest,2022.2.4,59.99358066592561,
music\silence.wav,silent,silent,silent,1,90,A,multiply,10,5,50,55,57,60,0,0,0,9,0,4,4,80,,,,,,,,,,,,,,,,,,,,,,,,,,,,,,,32.30078239995055,32.30078239995055,32.30078239995055,32.30078239995055,32.30078239995055,0.008533299900591373,32.30078239995055,True,-0.2935185185185185,-0.39814814814814814,1,0,0,ansOne,,,,,,,,,,,,,,,,,001,2022-11-01_17h39.16.323,musicalMathTest,2022.2.4,59.99358066592561,
music\silence.wav,silent,silent,silent,1,90,A,multiply,9,5,45,49,46,48,0,0,0,9,0,5,5,99,,,,,,,,,,,,,,,,,,,,,,,,,,,,,,,33.05070409993641,33.05070409993641,33.05070409993641,33.05070409993641,33.05070409993641,0.0066281999461352825,33.05070409993641,True,0.09351851851851851,-0.4083333333333333,1,0,0,ansThree,,,,,,,,,,,,,,,,,001,2022-11-01_17h39.16.323,musicalMathTest,2022.2.4,59.99358066592561,
music\silence.wav,silent,silent,silent,1,90,A,multiply,9,10,90,91,93,96,0,0,0,9,0,6,6,75,,,,,,,,,,,,,,,,,,,,,,,,,,,,,,,35.900688000023365,35.900688000023365,35.900688000023365,35.900688000023365,35.900688000023365,0.006594600039534271,35.900688000023365,True,0.09351851851851851,-0.4083333333333333,1,0,0,ansThree,,,,,,,,,,,,,,,,,001,2022-11-01_17h39.16.323,musicalMathTest,2022.2.4,59.99358066592561,
music\silence.wav,silent,silent,silent,1,90,A,add,49,45,94,101,98,96,0,0,0,9,0,7,7,13,,,,,,,,,,,,,,,,,,,,,,,,,,,,,,,37.00065489998087,37.00065489998087,37.00065489998087,37.00065489998087,37.00065489998087,0.007391999941319227,37.00065489998087,True,-0.2814814814814815,-0.39444444444444443,1,0,0,ansOne,,,,,,,,,,,,,,,,,001,2022-11-01_17h39.16.323,musicalMathTest,2022.2.4,59.99358066592561,
music\silence.wav,silent,silent,silent,1,90,A,subtract,53,52,1,3,4,8,0,0,0,9,0,8,8,35,,,,,,,,,,,,,,,,,,,,,,,,,,,,,,,40.283951699966565,40.283951699966565,40.283951699966565,40.283951699966565,40.283951699966565,0.006599899963475764,40.283951699966565,True,-0.10277777777777777,-0.3972222222222222,1,0,0,ansTwo,,,,,,,,,,,,,,,,,001,2022-11-01_17h39.16.323,musicalMathTest,2022.2.4,59.99358066592561,
music\silence.wav,silent,silent,silent,1,90,A,multiply,5,16,80,84,90,85,0,0,0,9,0,9,9,113,,,,,,,,,,,,,,,,,,,,,,,,,,,,,,,42.4172706999816,42.4172706999816,42.4172706999816,42.4172706999816,42.4172706999816,0.006584900082089007,42.4172706999816,True,-0.10462962962962963,-0.3972222222222222,1,0,0,ansTwo,,,,,,,,,,,,,,,,,001,2022-11-01_17h39.16.323,musicalMathTest,2022.2.4,59.99358066592561,
music\silence.wav,silent,silent,silent,1,90,A,subtract,45,29,16,20,23,22,0,0,0,9,0,10,10,57,,,,,,,,,,,,,,,,,,,,,,,,,,,,,,,44.20060900005046,44.20060900005046,44.20060900005046,44.20060900005046,44.20060900005046,0.006597400060854852,44.20060900005046,True,-0.30277777777777776,-0.4064814814814815,1,0,0,ansOne,,,,,,,,,,,,,,,,,001,2022-11-01_17h39.16.323,musicalMathTest,2022.2.4,59.99358066592561,
music\silence.wav,silent,silent,silent,1,90,A,add,48,45,93,103,98,94,0,0,0,9,0,11,11,7,,,,,,,,,,,,,,,,,,,,,,,,,,,,,,,63.85036289994605,63.85036289994605,63.85036289994605,63.85036289994605,63.85036289994605,0.006563200033269823,63.85036289994605,False,-0.29814814814814816,-0.4046296296296296,1,0,0,ansOne,,,,,,,,,,,,,,,,,001,2022-11-01_17h39.16.323,musicalMathTest,2022.2.4,59.99358066592561,
music\silence.wav,silent,silent,silent,1,90,A,subtract,35,18,17,18,7,23,0,0,0,9,0,12,12,59,,,,,,,,,,,,,,,,,,,,,,,,,,,,,,,70.36689780000597,70.36689780000597,70.36689780000597,70.36689780000597,70.36689780000597,0.0064455000683665276,70.36689780000597,True,-0.29907407407407405,-0.4046296296296296,1,0,0,ansOne,,,,,,,,,,,,,,,,,001,2022-11-01_17h39.16.323,musicalMathTest,2022.2.4,59.99358066592561,
music\silence.wav,silent,silent,silent,1,90,A,add,45,45,90,100,93,100,0,0,0,9,0,13,13,10,,,,,,,,,,,,,,,,,,,,,,,,,,,,,,,76.36682540003676,76.36682540003676,76.36682540003676,76.36682540003676,76.36682540003676,0.006728600012138486,76.36682540003676,True,0.09259259259259259,-0.39814814814814814,1,0,0,ansThree,,,,,,,,,,,,,,,,,001,2022-11-01_17h39.16.323,musicalMathTest,2022.2.4,59.99358066592561,
music\silence.wav,silent,silent,silent,1,90,A,add,53,52,105,109,108,111,0,0,0,9,0,14,14,4,,,,,,,,,,,,,,,,,,,,,,,,,,,,,,,78.55012699996587,78.55012699996587,78.55012699996587,78.55012699996587,78.55012699996587,0.0064067000057548285,78.55012699996587,True,-0.07592592592592592,-0.40555555555555556,1,0,0,ansTwo,,,,,,,,,,,,,,,,,001,2022-11-01_17h39.16.323,musicalMathTest,2022.2.4,59.99358066592561,
music\silence.wav,silent,silent,silent,1,90,A,multiply,10,9,90,98,94,97,0,0,0,9,0,15,15,63,,,,,,,,,,,,,,,,,,,,,,,,,,,,,,,82.21674780000467,82.21674780000467,82.21674780000467,82.21674780000467,82.21674780000467,0.006789300008676946,82.21674780000467,True,0.08796296296296297,-0.4,1,0,0,ansThree,,,,,,,,,,,,,,,,,001,2022-11-01_17h39.16.323,musicalMathTest,2022.2.4,59.99358066592561,
music\silence.wav,silent,silent,silent,1,90,A,subtract,45,45,0,7,2,5,0,0,0,9,0,16,16,31,,,,,,,,,,,,,,,,,,,,,,,,,,,,,,,83.75006190000568,83.75006190000568,83.75006190000568,83.75006190000568,83.75006190000568,0.006071500014513731,83.75006190000568,True,-0.10648148148148148,-0.4009259259259259,1,0,0,ansTwo,,,,,,,,,,,,,,,,,001,2022-11-01_17h39.16.323,musicalMathTest,2022.2.4,59.99358066592561,
music\silence.wav,silent,silent,silent,1,90,A,add,52,24,76,78,83,78,0,0,0,9,0,17,17,27,,,,,,,,,,,,,,,,,,,,,,,,,,,,,,,85.73336850001942,85.73336850001942,85.73336850001942,85.73336850001942,85.73336850001942,0.007020100019872189,85.73336850001942,True,0.09537037037037037,-0.4064814814814815,1,0,0,ansThree,,,,,,,,,,,,,,,,,001,2022-11-01_17h39.16.323,musicalMathTest,2022.2.4,59.99358066592561,
music\silence.wav,silent,silent,silent,1,90,A,subtract,20,18,2,9,7,8,0,0,0,9,0,18,18,55,,,,,,,,,,,,,,,,,,,,,,,,,,,,,,,90.61699490004685,90.61699490004685,90.61699490004685,90.61699490004685,90.61699490004685,0.006815800094045699,90.61699490004685,True,0.09166666666666666,-0.4083333333333333,1,0,0,ansThree,,,,,,,,,,,,,,,,,001,2022-11-01_17h39.16.323,musicalMathTest,2022.2.4,59.99358066592561,
music\silence.wav,silent,silent,silent,1,90,A,add,29,20,49,50,53,50,0,0,0,9,0,19,19,2,,,,,,,,,,,,,,,,,,,,,,,,,,,,,,,92.61750809999648,92.61750809999648,92.61750809999648,92.61750809999648,92.61750809999648,0.007279400015249848,92.61750809999648,True,-0.09074074074074075,-0.4083333333333333,1,0,0,ansTwo,,,,,,,,,,,,,,,,,001,2022-11-01_17h39.16.323,musicalMathTest,2022.2.4,59.99358066592561,
music\silence.wav,silent,silent,silent,1,90,A,multiply,16,5,80,82,84,82,0,0,0,9,0,20,20,85,,,,,,,,,,,,,,,,,,,,,,,,,,,,,,,95.81660759996157,95.81660759996157,95.81660759996157,95.81660759996157,95.81660759996157,0.006420399993658066,95.81660759996157,True,0.08796296296296297,-0.4027777777777778,1,0,0,ansThree,,,,,,,,,,,,,,,,,001,2022-11-01_17h39.16.323,musicalMathTest,2022.2.4,59.99358066592561,
music\silence.wav,silent,silent,silent,1,90,A,subtract,40,35,5,10,9,13,0,0,0,9,0,21,21,37,,,,,,,,,,,,,,,,,,,,,,,,,,,,,,,97.71657649998087,97.71657649998087,97.71657649998087,97.71657649998087,97.71657649998087,0.006730300025083125,97.71657649998087,True,0.09074074074074075,-0.39444444444444443,1,0,0,ansThree,,,,,,,,,,,,,,,,,001,2022-11-01_17h39.16.323,musicalMathTest,2022.2.4,59.99358066592561,
music\silence.wav,silent,silent,silent,1,90,A,add,45,18,63,64,69,66,0,0,0,9,0,22,22,16,,,,,,,,,,,,,,,,,,,,,,,,,,,,,,,100.14989679993596,100.14989679993596,100.14989679993596,100.14989679993596,100.14989679993596,0.006310399970971048,100.14989679993596,True,-0.09814814814814815,-0.4046296296296296,1,0,0,ansTwo,,,,,,,,,,,,,,,,,001,2022-11-01_17h39.16.323,musicalMathTest,2022.2.4,59.99358066592561,
music\silence.wav,silent,silent,silent,1,90,A,multiply,5,16,80,84,88,85,0,0,0,9,0,23,23,73,,,,,,,,,,,,,,,,,,,,,,,,,,,,,,,106.56649280001875,106.56649280001875,106.56649280001875,106.56649280001875,106.56649280001875,0.0075307999504730105,106.56649280001875,True,0.1111111111111111,-0.40185185185185185,1,0,0,ansThree,,,,,,,,,,,,,,,,,001,2022-11-01_17h39.16.323,musicalMathTest,2022.2.4,59.99358066592561,
music\silence.wav,silent,silent,silent,1,90,A,add,35,29,64,67,66,68,0,0,0,9,0,24,24,22,,,,,,,,,,,,,,,,,,,,,,,,,,,,,,,109.73308879998513,109.73308879998513,109.73308879998513,109.73308879998513,109.73308879998513,0.00655330007430166,109.73308879998513,True,-0.2953703703703704,-0.3990740740740741,1,0,0,ansOne,,,,,,,,,,,,,,,,,001,2022-11-01_17h39.16.323,musicalMathTest,2022.2.4,59.99358066592561,
music\active\vocals\Soda Pop (feat. Hot Air Balloon) (90) by Stony Pony.wav,soda pop,active,vocals,1,90,A,multiply,10,5,50,53,52,56,0,1,1,5,0,0,0,96,,,,,,,,,,,,,,,,,,,,,,,,121.14962989999913,0.004486700054258108,-0.18703703703703703,-0.287962962962963,1,0,0,126.3495910000056,126.3495910000056,126.3495910000056,126.3495910000056,126.3495910000056,0.039215700002387166,126.3495910000056,True,0.1037037037037037,-0.3962962962962963,1,0,0,ansThree,116.14970029995311,121.14962989999913,,,,,,,,,,,,,,,001,2022-11-01_17h39.16.323,musicalMathTest,2022.2.4,59.99358066592561,
music\active\vocals\Soda Pop (feat. Hot Air Balloon) (90) by Stony Pony.wav,soda pop,active,vocals,1,90,A,multiply,10,16,160,167,162,164,0,1,1,5,0,1,1,97,,,,,,,,,,,,,,,,,,,,,,,,,,,,,,,128.4995528999716,128.4995528999716,128.4995528999716,128.4995528999716,128.4995528999716,0.0068752000806853175,128.4995528999716,True,-0.30648148148148147,-0.4074074074074074,1,0,0,ansOne,,,,,,,,,,,,,,,,,001,2022-11-01_17h39.16.323,musicalMathTest,2022.2.4,59.99358066592561,
music\active\vocals\Soda Pop (feat. Hot Air Balloon) (90) by Stony Pony.wav,soda pop,active,vocals,1,90,A,subtract,57,52,5,9,10,11,0,1,1,5,0,2,2,45,,,,,,,,,,,,,,,,,,,,,,,,,,,,,,,131.23284910002258,131.23284910002258,131.23284910002258,131.23284910002258,131.23284910002258,0.006045799935236573,131.23284910002258,True,-0.10185185185185185,-0.4064814814814815,1,0,0,ansTwo,,,,,,,,,,,,,,,,,001,2022-11-01_17h39.16.323,musicalMathTest,2022.2.4,59.99358066592561,
music\active\vocals\Soda Pop (feat. Hot Air Balloon) (90) by Stony Pony.wav,soda pop,active,vocals,1,90,A,multiply,2,8,16,17,24,20,0,1,1,5,0,3,3,86,,,,,,,,,,,,,,,,,,,,,,,,,,,,,,,137.49951210001018,137.49951210001018,137.49951210001018,137.49951210001018,137.49951210001018,0.006429899949580431,137.49951210001018,True,0.11388888888888889,-0.40555555555555556,1,0,0,ansThree,,,,,,,,,,,,,,,,,001,2022-11-01_17h39.16.323,musicalMathTest,2022.2.4,59.99358066592561,
music\active\vocals\Soda Pop (feat. Hot Air Balloon) (90) by Stony Pony.wav,soda pop,active,vocals,1,90,A,subtract,48,45,3,7,6,10,0,1,1,5,0,4,4,38,,,,,,,,,,,,,,,,,,,,,,,,,,,,,,,140.28275380004197,140.28275380004197,140.28275380004197,140.28275380004197,140.28275380004197,0.006191499996930361,140.28275380004197,True,0.10185185185185185,-0.4111111111111111,1,0,0,ansThree,,,,,,,,,,,,,,,,,001,2022-11-01_17h39.16.323,musicalMathTest,2022.2.4,59.99358066592561,
music\active\vocals\Soda Pop (feat. Hot Air Balloon) (90) by Stony Pony.wav,soda pop,active,vocals,1,90,A,subtract,49,45,4,8,10,7,0,1,1,5,0,5,5,44,,,,,,,,,,,,,,,,,,,,,,,,,,,,,,,142.26602079998702,142.26602079998702,142.26602079998702,142.26602079998702,142.26602079998702,0.006072100019082427,142.26602079998702,True,0.09537037037037037,-0.4074074074074074,1,0,0,ansThree,,,,,,,,,,,,,,,,,001,2022-11-01_17h39.16.323,musicalMathTest,2022.2.4,59.99358066592561,
music\active\vocals\Soda Pop (feat. Hot Air Balloon) (90) by Stony Pony.wav,soda pop,active,vocals,1,90,A,add,57,52,109,117,113,117,0,1,1,5,0,6,6,11,,,,,,,,,,,,,,,,,,,,,,,,,,,,,,,144.03264360001776,144.03264360001776,144.03264360001776,144.03264360001776,144.03264360001776,0.00654420000500977,144.03264360001776,True,-0.10185185185185185,-0.39814814814814814,1,0,0,ansTwo,,,,,,,,,,,,,,,,,001,2022-11-01_17h39.16.323,musicalMathTest,2022.2.4,59.99358066592561,
music\active\vocals\Soda Pop (feat. Hot Air Balloon) (90) by Stony Pony.wav,soda pop,active,vocals,1,90,A,multiply,5,10,50,57,59,51,0,1,1,5,0,7,7,76,,,,,,,,,,,,,,,,,,,,,,,,,,,,,,,148.01601010002196,148.01601010002196,148.01601010002196,148.01601010002196,148.01601010002196,0.006567499949596822,148.01601010002196,True,-0.10185185185185185,-0.3972222222222222,1,0,0,ansTwo,,,,,,,,,,,,,,,,,001,2022-11-01_17h39.16.323,musicalMathTest,2022.2.4,59.99358066592561,
music\active\vocals\Soda Pop (feat. Hot Air Balloon) (90) by Stony Pony.wav,soda pop,active,vocals,1,90,A,add,52,17,69,70,75,71,0,1,1,5,0,8,8,17,,,,,,,,,,,,,,,,,,,,,,,,,,,,,,,149.149276799988,149.149276799988,149.149276799988,149.149276799988,149.149276799988,0.0059380000457167625,149.149276799988,True,-0.30277777777777776,-0.3972222222222222,1,0,0,ansOne,,,,,,,,,,,,,,,,,001,2022-11-01_17h39.16.323,musicalMathTest,2022.2.4,59.99358066592561,
music\active\vocals\Soda Pop (feat. Hot Air Balloon) (90) by Stony Pony.wav,soda pop,active,vocals,1,90,A,subtract,35,29,6,8,10,14,0,1,1,5,0,9,9,53,,,,,,,,,,,,,,,,,,,,,,,,,,,,,,,153.21589510003105,153.21589510003105,153.21589510003105,153.21589510003105,153.21589510003105,0.006056999904103577,153.21589510003105,True,0.10277777777777777,-0.4027777777777778,1,0,0,ansThree,,,,,,,,,,,,,,,,,001,2022-11-01_17h39.16.323,musicalMathTest,2022.2.4,59.99358066592561,
music\active\vocals\Soda Pop (feat. Hot Air Balloon) (90) by Stony Pony.wav,soda pop,active,vocals,1,90,A,add,45,45,90,100,93,100,0,1,1,5,0,10,10,10,,,,,,,,,,,,,,,,,,,,,,,,,,,,,,,156.8491883999668,156.8491883999668,156.8491883999668,156.8491883999668,156.8491883999668,0.006509999977424741,156.8491883999668,True,-0.08796296296296297,-0.4027777777777778,1,0,0,ansTwo,,,,,,,,,,,,,,,,,001,2022-11-01_17h39.16.323,musicalMathTest,2022.2.4,59.99358066592561,
music\active\vocals\Soda Pop (feat. Hot Air Balloon) (90) by Stony Pony.wav,soda pop,active,vocals,1,90,A,multiply,5,2,10,11,18,15,0,1,1,5,0,11,11,116,,,,,,,,,,,,,,,,,,,,,,,,,,,,,,,159.54914799996186,159.54914799996186,159.54914799996186,159.54914799996186,159.54914799996186,0.005986900068819523,159.54914799996186,True,0.09166666666666666,-0.4009259259259259,1,0,0,ansThree,,,,,,,,,,,,,,,,,001,2022-11-01_17h39.16.323,musicalMathTest,2022.2.4,59.99358066592561,
music\active\vocals\Soda Pop (feat. Hot Air Balloon) (90) by Stony Pony.wav,soda pop,active,vocals,1,90,A,multiply,9,5,45,51,47,53,0,1,1,5,0,12,12,83,,,,,,,,,,,,,,,,,,,,,,,,,,,,,,,162.96575870004017,162.96575870004017,162.96575870004017,162.96575870004017,162.96575870004017,0.005947600002400577,162.96575870004017,True,-0.10277777777777777,-0.40555555555555556,1,0,0,ansTwo,,,,,,,,,,,,,,,,,001,2022-11-01_17h39.16.323,musicalMathTest,2022.2.4,59.99358066592561,
music\active\vocals\Soda Pop (feat. Hot Air Balloon) (90) by Stony Pony.wav,soda pop,active,vocals,1,90,A,multiply,5,16,80,84,88,85,0,1,1,5,0,13,13,73,,,,,,,,,,,,,,,,,,,,,,,,,,,,,,,164.61575670004822,164.61575670004822,164.61575670004822,164.61575670004822,164.61575670004822,0.006247100071050227,164.61575670004822,True,0.11296296296296296,-0.40370370370370373,1,0,0,ansThree,,,,,,,,,,,,,,,,,001,2022-11-01_17h39.16.323,musicalMathTest,2022.2.4,59.99358066592561,
music\active\vocals\Soda Pop (feat. Hot Air Balloon) (90) by Stony Pony.wav,soda pop,active,vocals,1,90,A,multiply,10,5,50,57,53,57,0,1,1,5,0,14,14,104,,,,,,,,,,,,,,,,,,,,,,,,,,,,,,,166.86572190001607,166.86572190001607,166.86572190001607,166.86572190001607,166.86572190001607,0.005816500051878393,166.86572190001607,True,-0.09351851851851851,-0.40370370370370373,1,0,0,ansTwo,,,,,,,,,,,,,,,,,001,2022-11-01_17h39.16.323,musicalMathTest,2022.2.4,59.99358066592561,
music\active\vocals\Soda Pop (feat. Hot Air Balloon) (90) by Stony Pony.wav,soda pop,active,vocals,1,90,A,add,45,45,90,97,92,94,0,1,1,5,0,15,15,0,,,,,,,,,,,,,,,,,,,,,,,,,,,,,,,168.6323632999556,168.6323632999556,168.6323632999556,168.6323632999556,168.6323632999556,0.006165600032545626,168.6323632999556,True,0.10555555555555556,-0.4083333333333333,1,0,0,ansThree,,,,,,,,,,,,,,,,,001,2022-11-01_17h39.16.323,musicalMathTest,2022.2.4,59.99358066592561,
music\active\vocals\Soda Pop (feat. Hot Air Balloon) (90) by Stony Pony.wav,soda pop,active,vocals,1,90,A,subtract,40,35,5,10,9,13,0,1,1,5,0,16,16,37,,,,,,,,,,,,,,,,,,,,,,,,,,,,,,,170.44903020001948,170.44903020001948,170.44903020001948,170.44903020001948,170.44903020001948,0.006005499977618456,170.44903020001948,True,-0.09351851851851851,-0.40370370370370373,1,0,0,ansTwo,,,,,,,,,,,,,,,,,001,2022-11-01_17h39.16.323,musicalMathTest,2022.2.4,59.99358066592561,
music\active\vocals\Soda Pop (feat. Hot Air Balloon) (90) by Stony Pony.wav,soda pop,active,vocals,1,90,A,subtract,38,35,3,10,6,10,0,1,1,5,0,17,17,43,,,,,,,,,,,,,,,,,,,,,,,,,,,,,,,172.61566300003324,172.61566300003324,172.61566300003324,172.61566300003324,172.61566300003324,0.006003900081850588,172.61566300003324,True,-0.0962962962962963,-0.40370370370370373,1,0,0,ansTwo,,,,,,,,,,,,,,,,,001,2022-11-01_17h39.16.323,musicalMathTest,2022.2.4,59.99358066592561,
music\active\vocals\Soda Pop (feat. Hot Air Balloon) (90) by Stony Pony.wav,soda pop,active,vocals,1,90,A,add,40,35,75,85,83,80,0,1,1,5,0,18,18,6,,,,,,,,,,,,,,,,,,,,,,,,,,,,,,,173.88235580001492,173.88235580001492,173.88235580001492,173.88235580001492,173.88235580001492,0.00589090003632009,173.88235580001492,True,0.09351851851851851,-0.4027777777777778,1,0,0,ansThree,,,,,,,,,,,,,,,,,001,2022-11-01_17h39.16.323,musicalMathTest,2022.2.4,59.99358066592561,
music\active\vocals\Soda Pop (feat. Hot Air Balloon) (90) by Stony Pony.wav,soda pop,active,vocals,1,90,A,multiply,5,16,80,84,90,85,0,1,1,5,0,19,19,113,,,,,,,,,,,,,,,,,,,,,,,,,,,,,,,177.68226050003432,177.68226050003432,177.68226050003432,177.68226050003432,177.68226050003432,0.0059602000983431935,177.68226050003432,True,0.08796296296296297,-0.40370370370370373,1,0,0,ansThree,,,,,,,,,,,,,,,,,001,2022-11-01_17h39.16.323,musicalMathTest,2022.2.4,59.99358066592561,
music\active\vocals\Soda Pop (feat. Hot Air Balloon) (90) by Stony Pony.wav,soda pop,active,vocals,1,90,A,multiply,8,10,80,85,90,94,0,1,1,5,0,20,20,74,,,,,,,,,,,,,,,,,,,,,,,,,,,,,,,178.98226540000178,178.98226540000178,178.98226540000178,178.98226540000178,178.98226540000178,0.006438800017349422,178.98226540000178,True,-0.09537037037037037,-0.4009259259259259,1,0,0,ansTwo,,,,,,,,,,,,,,,,,001,2022-11-01_17h39.16.323,musicalMathTest,2022.2.4,59.99358066592561,
music\active\vocals\Soda Pop (feat. Hot Air Balloon) (90) by Stony Pony.wav,soda pop,active,vocals,1,90,A,multiply,9,2,18,19,21,24,0,1,1,5,0,21,21,115,,,,,,,,,,,,,,,,,,,,,,,,,,,,,,,180.9989157000091,180.9989157000091,180.9989157000091,180.9989157000091,180.9989157000091,0.006364500033669174,180.9989157000091,True,0.09259259259259259,-0.40555555555555556,1,0,0,ansThree,,,,,,,,,,,,,,,,,001,2022-11-01_17h39.16.323,musicalMathTest,2022.2.4,59.99358066592561,
music\active\vocals\Soda Pop (feat. Hot Air Balloon) (90) by Stony Pony.wav,soda pop,active,vocals,1,90,A,subtract,45,45,0,2,3,7,0,1,1,5,0,22,22,41,,,,,,,,,,,,,,,,,,,,,,,,,,,,,,,183.4321679000277,183.4321679000277,183.4321679000277,183.4321679000277,183.4321679000277,0.006044499925337732,183.4321679000277,True,0.09166666666666666,-0.4046296296296296,1,0,0,ansThree,,,,,,,,,,,,,,,,,001,2022-11-01_17h39.16.323,musicalMathTest,2022.2.4,59.99358066592561,
music\active\vocals\Soda Pop (feat. Hot Air Balloon) (90) by Stony Pony.wav,soda pop,active,vocals,1,90,A,multiply,5,8,40,46,43,45,0,1,1,5,0,23,23,110,,,,,,,,,,,,,,,,,,,,,,,,,,,,,,,184.44883719994687,184.44883719994687,184.44883719994687,184.44883719994687,184.44883719994687,0.006582899950444698,184.44883719994687,True,-0.28703703703703703,-0.39537037037037037,1,0,0,ansOne,,,,,,,,,,,,,,,,,001,2022-11-01_17h39.16.323,musicalMathTest,2022.2.4,59.99358066592561,
music\active\vocals\Soda Pop (feat. Hot Air Balloon) (90) by Stony Pony.wav,soda pop,active,vocals,1,90,A,subtract,45,45,0,7,2,5,0,1,1,5,0,24,24,31,,,,,,,,,,,,,,,,,,,,,,,,,,,,,,,187.5820750000421,187.5820750000421,187.5820750000421,187.5820750000421,187.5820750000421,0.0059489000122994184,187.5820750000421,True,0.1,-0.3907407407407407,1,0,0,ansThree,,,,,,,,,,,,,,,,,001,2022-11-01_17h39.16.323,musicalMathTest,2022.2.4,59.99358066592561,
music\active\vocals\Soda Pop (feat. Hot Air Balloon) (90) by Stony Pony.wav,soda pop,active,vocals,1,90,A,subtract,57,52,5,6,7,11,0,1,1,5,0,25,25,42,,,,,,,,,,,,,,,,,,,,,,,,,,,,,,,189.61539299995638,189.61539299995638,189.61539299995638,189.61539299995638,189.61539299995638,0.006526599987410009,189.61539299995638,True,-0.2972222222222222,-0.4027777777777778,1,0,0,ansOne,,,,,,,,,,,,,,,,,001,2022-11-01_17h39.16.323,musicalMathTest,2022.2.4,59.99358066592561,
music\active\vocals\Soda Pop (feat. Hot Air Balloon) (90) by Stony Pony.wav,soda pop,active,vocals,1,90,A,subtract,45,18,27,28,30,33,0,1,1,5,0,26,26,47,,,,,,,,,,,,,,,,,,,,,,,,,,,,,,,192.36538580001798,192.36538580001798,192.36538580001798,192.36538580001798,192.36538580001798,0.0060912000481039286,192.36538580001798,True,-0.0962962962962963,-0.40370370370370373,1,0,0,ansTwo,,,,,,,,,,,,,,,,,001,2022-11-01_17h39.16.323,musicalMathTest,2022.2.4,59.99358066592561,
music\active\vocals\Soda Pop (feat. Hot Air Balloon) (90) by Stony Pony.wav,soda pop,active,vocals,1,90,A,multiply,8,10,80,88,82,85,0,1,1,5,0,27,27,66,,,,,,,,,,,,,,,,,,,,,,,,,,,,,,,198.56532249995507,198.56532249995507,198.56532249995507,198.56532249995507,198.56532249995507,0.006284900009632111,198.56532249995507,True,0.09351851851851851,-0.4064814814814815,1,0,0,ansThree,,,,,,,,,,,,,,,,,001,2022-11-01_17h39.16.323,musicalMathTest,2022.2.4,59.99358066592561,
music\active\vocals\Soda Pop (feat. Hot Air Balloon) (90) by Stony Pony.wav,soda pop,active,vocals,1,90,A,multiply,5,10,50,51,52,53,0,1,1,5,0,28,28,68,,,,,,,,,,,,,,,,,,,,,,,,,,,,,,,200.36529430001974,200.36529430001974,200.36529430001974,200.36529430001974,200.36529430001974,0.005791799980215728,200.36529430001974,True,-0.10092592592592593,-0.40370370370370373,1,0,0,ansTwo,,,,,,,,,,,,,,,,,001,2022-11-01_17h39.16.323,musicalMathTest,2022.2.4,59.99358066592561,
music\active\vocals\Soda Pop (feat. Hot Air Balloon) (90) by Stony Pony.wav,soda pop,active,vocals,1,90,A,multiply,5,10,50,55,60,53,0,1,1,5,0,29,29,92,,,,,,,,,,,,,,,,,,,,,,,,,,,,,,,202.09862269996665,202.09862269996665,202.09862269996665,202.09862269996665,202.09862269996665,0.00430989998858422,202.09862269996665,True,-0.1111111111111111,-0.3972222222222222,1,0,0,ansTwo,,,,,,,,,,,,,,,,,001,2022-11-01_17h39.16.323,musicalMathTest,2022.2.4,59.99358066592561,
music\active\vocals\Soda Pop (feat. Hot Air Balloon) (90) by Stony Pony.wav,soda pop,active,vocals,1,90,A,subtract,30,29,1,5,7,5,0,1,1,5,0,30,30,49,,,,,,,,,,,,,,,,,,,,,,,,,,,,,,,203.41518979996908,203.41518979996908,203.41518979996908,203.41518979996908,203.41518979996908,0.0067585998913273215,203.41518979996908,True,0.09814814814814815,-0.3962962962962963,1,0,0,ansThree,,,,,,,,,,,,,,,,,001,2022-11-01_17h39.16.323,musicalMathTest,2022.2.4,59.99358066592561,
music\active\vocals\Soda Pop (feat. Hot Air Balloon) (90) by Stony Pony.wav,soda pop,active,vocals,1,90,A,multiply,10,16,160,164,170,166,0,1,1,5,0,31,31,65,,,,,,,,,,,,,,,,,,,,,,,,,,,,,,,206.06521220004652,206.06521220004652,206.06521220004652,206.06521220004652,206.06521220004652,0.00626259995624423,206.06521220004652,True,-0.09259259259259259,-0.4064814814814815,1,0,0,ansTwo,,,,,,,,,,,,,,,,,001,2022-11-01_17h39.16.323,musicalMathTest,2022.2.4,59.99358066592561,
music\active\vocals\Soda Pop (feat. Hot Air Balloon) (90) by Stony Pony.wav,soda pop,active,vocals,1,90,A,multiply,10,5,50,55,51,52,0,1,1,5,0,32,32,64,,,,,,,,,,,,,,,,,,,,,,,,,,,,,,,208.0318910999922,208.0318910999922,208.0318910999922,208.0318910999922,208.0318910999922,0.006251299986615777,208.0318910999922,True,-0.09351851851851851,-0.40555555555555556,1,0,0,ansTwo,,,,,,,,,,,,,,,,,001,2022-11-01_17h39.16.323,musicalMathTest,2022.2.4,59.99358066592561,
music\active\vocals\Soda Pop (feat. Hot Air Balloon) (90) by Stony Pony.wav,soda pop,active,vocals,1,90,A,multiply,8,5,40,44,42,47,0,1,1,5,0,33,33,82,,,,,,,,,,,,,,,,,,,,,,,,,,,,,,,209.01519179996103,209.01519179996103,209.01519179996103,209.01519179996103,209.01519179996103,0.006205999990925193,209.01519179996103,True,0.1111111111111111,-0.39444444444444443,1,0,0,ansThree,,,,,,,,,,,,,,,,,001,2022-11-01_17h39.16.323,musicalMathTest,2022.2.4,59.99358066592561,
music\active\vocals\Soda Pop (feat. Hot Air Balloon) (90) by Stony Pony.wav,soda pop,active,vocals,1,90,A,subtract,35,17,18,26,22,26,0,1,1,5,0,34,34,56,,,,,,,,,,,,,,,,,,,,,,,,,,,,,,,210.81513530004304,210.81513530004304,210.81513530004304,210.81513530004304,210.81513530004304,0.007053900044411421,210.81513530004304,True,0.10277777777777777,-0.3990740740740741,1,0,0,ansThree,,,,,,,,,,,,,,,,,001,2022-11-01_17h39.16.323,musicalMathTest,2022.2.4,59.99358066592561,
music\active\vocals\Soda Pop (feat. Hot Air Balloon) (90) by Stony Pony.wav,soda pop,active,vocals,1,90,A,add,24,20,44,47,49,54,0,1,1,5,0,35,35,15,,,,,,,,,,,,,,,,,,,,,,,,,,,,,,,216.23176410002634,216.23176410002634,216.23176410002634,216.23176410002634,216.23176410002634,0.006224400014616549,216.23176410002634,True,-0.2953703703703704,-0.40185185185185185,1,0,0,ansOne,,,,,,,,,,,,,,,,,001,2022-11-01_17h39.16.323,musicalMathTest,2022.2.4,59.99358066592561,
music\calm\vocals\Brand New Feelings (90) by Land of Legs.wav,brand new feelings,calm,vocals,1,90,A,subtract,63,59,4,9,8,11,0,2,2,1,0,0,0,37,,,,,,,,,,,,,,,,,,,,,,,,226.43160300003365,0.008675899938680232,-0.19166666666666668,-0.2972222222222222,1,0,0,233.08163679996505,233.08163679996505,233.08163679996505,233.08163679996505,233.08163679996505,0.025976400007493794,233.08163679996505,True,0.1,-0.4027777777777778,1,0,0,ansThree,221.43168609996792,226.43160300003365,,,,,,,,,,,,,,,001,2022-11-01_17h39.16.323,musicalMathTest,2022.2.4,59.99358066592561,
music\calm\vocals\Brand New Feelings (90) by Land of Legs.wav,brand new feelings,calm,vocals,1,90,A,add,46,41,87,91,89,93,0,2,2,1,0,1,1,17,,,,,,,,,,,,,,,,,,,,,,,,,,,,,,,236.4814994999906,236.4814994999906,236.4814994999906,236.4814994999906,236.4814994999906,0.006506299949251115,236.4814994999906,True,0.10740740740740741,-0.40185185185185185,1,0,0,ansThree,,,,,,,,,,,,,,,,,001,2022-11-01_17h39.16.323,musicalMathTest,2022.2.4,59.99358066592561,
music\calm\vocals\Brand New Feelings (90) by Land of Legs.wav,brand new feelings,calm,vocals,1,90,A,subtract,51,33,18,20,26,22,0,2,2,1,0,2,2,42,,,,,,,,,,,,,,,,,,,,,,,,,,,,,,,241.73142790002748,241.73142790002748,241.73142790002748,241.73142790002748,241.73142790002748,0.006919399951584637,241.73142790002748,True,-0.08796296296296297,-0.4,1,0,0,ansTwo,,,,,,,,,,,,,,,,,001,2022-11-01_17h39.16.323,musicalMathTest,2022.2.4,59.99358066592561,
music\calm\vocals\Brand New Feelings (90) by Land of Legs.wav,brand new feelings,calm,vocals,1,90,A,subtract,41,33,8,16,12,16,0,2,2,1,0,3,3,32,,,,,,,,,,,,,,,,,,,,,,,,,,,,,,,246.08138059999328,246.08138059999328,246.08138059999328,246.08138059999328,246.08138059999328,0.005892799934372306,246.08138059999328,True,0.10092592592592593,-0.40185185185185185,1,0,0,ansThree,,,,,,,,,,,,,,,,,001,2022-11-01_17h39.16.323,musicalMathTest,2022.2.4,59.99358066592561,
music\calm\vocals\Brand New Feelings (90) by Land of Legs.wav,brand new feelings,calm,vocals,1,90,A,add,47,46,93,101,103,98,0,2,2,1,0,4,4,30,,,,,,,,,,,,,,,,,,,,,,,,,,,,,,,253.93125220004003,253.93125220004003,253.93125220004003,253.93125220004003,253.93125220004003,0.006685700034722686,253.93125220004003,True,0.10277777777777777,-0.39814814814814814,1,0,0,ansThree,,,,,,,,,,,,,,,,,001,2022-11-01_17h39.16.323,musicalMathTest,2022.2.4,59.99358066592561,
music\calm\vocals\Brand New Feelings (90) by Land of Legs.wav,brand new feelings,calm,vocals,1,90,A,multiply,10,2,20,26,28,21,0,2,2,1,0,5,5,114,,,,,,,,,,,,,,,,,,,,,,,,,,,,,,,268.531165100052,268.531165100052,268.531165100052,268.531165100052,268.531165100052,0.006342500098980963,268.531165100052,True,-0.0962962962962963,-0.4083333333333333,1,0,0,ansTwo,,,,,,,,,,,,,,,,,001,2022-11-01_17h39.16.323,musicalMathTest,2022.2.4,59.99358066592561,
music\calm\vocals\Brand New Feelings (90) by Land of Legs.wav,brand new feelings,calm,vocals,1,90,A,multiply,5,10,50,54,53,54,0,2,2,1,0,6,6,70,,,,,,,,,,,,,,,,,,,,,,,,,,,,,,,270.0643999000313,270.0643999000313,270.0643999000313,270.0643999000313,270.0643999000313,0.006527399993501604,270.0643999000313,True,0.10740740740740741,-0.4074074074074074,1,0,0,ansThree,,,,,,,,,,,,,,,,,001,2022-11-01_17h39.16.323,musicalMathTest,2022.2.4,59.99358066592561,
music\calm\vocals\Brand New Feelings (90) by Land of Legs.wav,brand new feelings,calm,vocals,1,90,A,add,50,46,96,98,101,99,0,2,2,1,0,7,7,18,,,,,,,,,,,,,,,,,,,,,,,,,,,,,,,271.7310745000141,271.7310745000141,271.7310745000141,271.7310745000141,271.7310745000141,0.0059911999851465225,271.7310745000141,True,0.10740740740740741,-0.4074074074074074,1,0,0,ansThree,,,,,,,,,,,,,,,,,001,2022-11-01_17h39.16.323,musicalMathTest,2022.2.4,59.99358066592561,
music\calm\vocals\Brand New Feelings (90) by Land of Legs.wav,brand new feelings,calm,vocals,1,90,A,multiply,20,5,100,101,104,108,0,2,2,1,0,8,8,99,,,,,,,,,,,,,,,,,,,,,,,,,,,,,,,274.1476905000163,274.1476905000163,274.1476905000163,274.1476905000163,274.1476905000163,0.006424400024116039,274.1476905000163,True,-0.08611111111111111,-0.4101851851851852,1,0,0,ansTwo,,,,,,,,,,,,,,,,,001,2022-11-01_17h39.16.323,musicalMathTest,2022.2.4,59.99358066592561,
music\calm\vocals\Brand New Feelings (90) by Land of Legs.wav,brand new feelings,calm,vocals,1,90,A,multiply,7,2,14,18,20,18,0,2,2,1,0,9,9,116,,,,,,,,,,,,,,,,,,,,,,,,,,,,,,,275.91431799996644,275.91431799996644,275.91431799996644,275.91431799996644,275.91431799996644,0.006098899990320206,275.91431799996644,True,0.11018518518518519,-0.4,1,0,0,ansThree,,,,,,,,,,,,,,,,,001,2022-11-01_17h39.16.323,musicalMathTest,2022.2.4,59.99358066592561,
music\calm\vocals\Brand New Feelings (90) by Land of Legs.wav,brand new feelings,calm,vocals,1,90,A,add,47,12,59,63,67,64,0,2,2,1,0,10,10,0,,,,,,,,,,,,,,,,,,,,,,,,,,,,,,,279.2809989999514,279.2809989999514,279.2809989999514,279.2809989999514,279.2809989999514,0.0062342999735847116,279.2809989999514,True,-0.1037037037037037,-0.3972222222222222,1,0,0,ansTwo,,,,,,,,,,,,,,,,,001,2022-11-01_17h39.16.323,musicalMathTest,2022.2.4,59.99358066592561,
music\calm\vocals\Brand New Feelings (90) by Land of Legs.wav,brand new feelings,calm,vocals,1,90,A,subtract,61,59,2,3,8,9,0,2,2,1,0,11,11,40,,,,,,,,,,,,,,,,,,,,,,,,,,,,,,,282.4142780000111,282.4142780000111,282.4142780000111,282.4142780000111,282.4142780000111,0.005903499899432063,282.4142780000111,True,0.10092592592592593,-0.40370370370370373,1,0,0,ansThree,,,,,,,,,,,,,,,,,001,2022-11-01_17h39.16.323,musicalMathTest,2022.2.4,59.99358066592561,
music\calm\vocals\Brand New Feelings (90) by Land of Legs.wav,brand new feelings,calm,vocals,1,90,A,add,63,59,122,125,132,126,0,2,2,1,0,12,12,6,,,,,,,,,,,,,,,,,,,,,,,,,,,,,,,286.13089959998615,286.13089959998615,286.13089959998615,286.13089959998615,286.13089959998615,0.006455500028096139,286.13089959998615,True,-0.2851851851851852,-0.39537037037037037,1,0,0,ansOne,,,,,,,,,,,,,,,,,001,2022-11-01_17h39.16.323,musicalMathTest,2022.2.4,59.99358066592561,
music\calm\vocals\Brand New Feelings (90) by Land of Legs.wav,brand new feelings,calm,vocals,1,90,A,multiply,10,7,70,80,77,80,0,2,2,1,0,13,13,64,,,,,,,,,,,,,,,,,,,,,,,,,,,,,,,294.56407660001423,294.56407660001423,294.56407660001423,294.56407660001423,294.56407660001423,0.0062360999872908,294.56407660001423,True,-0.09259259259259259,-0.39444444444444443,1,0,0,ansTwo,,,,,,,,,,,,,,,,,001,2022-11-01_17h39.16.323,musicalMathTest,2022.2.4,59.99358066592561,
music\calm\vocals\Brand New Feelings (90) by Land of Legs.wav,brand new feelings,calm,vocals,1,90,A,add,48,47,95,96,98,105,0,2,2,1,0,14,14,24,,,,,,,,,,,,,,,,,,,,,,,,,,,,,,,295.8474028999917,295.8474028999917,295.8474028999917,295.8474028999917,295.8474028999917,0.00632789998780936,295.8474028999917,True,0.11666666666666667,-0.3962962962962963,1,0,0,ansThree,,,,,,,,,,,,,,,,,001,2022-11-01_17h39.16.323,musicalMathTest,2022.2.4,59.99358066592561,
music\calm\vocals\Brand New Feelings (90) by Land of Legs.wav,brand new feelings,calm,vocals,1,90,A,multiply,10,10,100,107,103,104,0,2,2,1,0,15,15,74,,,,,,,,,,,,,,,,,,,,,,,,,,,,,,,299.54735809995327,299.54735809995327,299.54735809995327,299.54735809995327,299.54735809995327,0.0062108999118208885,299.54735809995327,True,-0.3148148148148148,-0.4064814814814815,1,0,0,ansOne,,,,,,,,,,,,,,,,,001,2022-11-01_17h39.16.323,musicalMathTest,2022.2.4,59.99358066592561,
music\calm\vocals\Brand New Feelings (90) by Land of Legs.wav,brand new feelings,calm,vocals,1,90,A,subtract,60,59,1,5,7,5,0,2,2,1,0,16,16,34,,,,,,,,,,,,,,,,,,,,,,,,,,,,,,,300.99736140004825,300.99736140004825,300.99736140004825,300.99736140004825,300.99736140004825,0.0061033000238239765,300.99736140004825,True,0.10277777777777777,-0.4064814814814815,1,0,0,ansThree,,,,,,,,,,,,,,,,,001,2022-11-01_17h39.16.323,musicalMathTest,2022.2.4,59.99358066592561,
music\calm\vocals\Brand New Feelings (90) by Land of Legs.wav,brand new feelings,calm,vocals,1,90,A,subtract,51,47,4,12,7,11,0,2,2,1,0,17,17,51,,,,,,,,,,,,,,,,,,,,,,,,,,,,,,,303.76392299996223,303.76392299996223,303.76392299996223,303.76392299996223,303.76392299996223,0.006124500068835914,303.76392299996223,True,0.10277777777777777,-0.4064814814814815,1,0,0,ansThree,,,,,,,,,,,,,,,,,001,2022-11-01_17h39.16.323,musicalMathTest,2022.2.4,59.99358066592561,
music\calm\vocals\Brand New Feelings (90) by Land of Legs.wav,brand new feelings,calm,vocals,1,90,A,multiply,2,13,26,27,29,36,0,2,2,1,0,18,18,89,,,,,,,,,,,,,,,,,,,,,,,,,,,,,,,306.2806163999485,306.2806163999485,306.2806163999485,306.2806163999485,306.2806163999485,0.006233599968254566,306.2806163999485,True,0.10277777777777777,-0.4064814814814815,1,0,0,ansThree,,,,,,,,,,,,,,,,,001,2022-11-01_17h39.16.323,musicalMathTest,2022.2.4,59.99358066592561,
music\calm\vocals\Brand New Feelings (90) by Land of Legs.wav,brand new feelings,calm,vocals,1,90,A,multiply,13,2,26,30,33,37,0,2,2,1,0,19,19,117,,,,,,,,,,,,,,,,,,,,,,,,,,,,,,,308.597270200029,308.597270200029,308.597270200029,308.597270200029,308.597270200029,0.005986700067296624,308.597270200029,True,-0.3055555555555556,-0.4027777777777778,1,0,0,ansOne,,,,,,,,,,,,,,,,,001,2022-11-01_17h39.16.323,musicalMathTest,2022.2.4,59.99358066592561,
music\calm\vocals\Brand New Feelings (90) by Land of Legs.wav,brand new feelings,calm,vocals,1,90,A,multiply,5,20,100,103,102,101,0,2,2,1,0,20,20,71,,,,,,,,,,,,,,,,,,,,,,,,,,,,,,,311.06387419998646,311.06387419998646,311.06387419998646,311.06387419998646,311.06387419998646,0.006519900052808225,311.06387419998646,True,-0.3074074074074074,-0.4027777777777778,1,0,0,ansOne,,,,,,,,,,,,,,,,,001,2022-11-01_17h39.16.323,musicalMathTest,2022.2.4,59.99358066592561,
music\calm\vocals\Brand New Feelings (90) by Land of Legs.wav,brand new feelings,calm,vocals,1,90,A,subtract,51,34,17,20,21,23,0,2,2,1,0,21,21,46,,,,,,,,,,,,,,,,,,,,,,,,,,,,,,,312.84718779998366,312.84718779998366,312.84718779998366,312.84718779998366,312.84718779998366,0.0059405999490991235,312.84718779998366,False,0.29814814814814816,-0.4046296296296296,1,0,0,ansFour,,,,,,,,,,,,,,,,,001,2022-11-01_17h39.16.323,musicalMathTest,2022.2.4,59.99358066592561,
music\calm\vocals\You & Me featuring Ural Thomas (90) by Bridge City Revival.wav,you and me,calm,vocals,1,90,A,subtract,62,58,4,5,9,6,0,3,3,7,0,0,0,44,,,,,,,,,,,,,,,,,,,,,,,,329.9469973000232,0.004627399961464107,0.09351851851851851,-0.32037037037037036,1,0,0,335.33027100004256,335.33027100004256,335.33027100004256,335.33027100004256,335.33027100004256,0.03093620005529374,335.33027100004256,True,0.09722222222222222,-0.4,1,0,0,ansThree,324.9470762000419,329.9469973000232,,,,,,,,,,,,,,,001,2022-11-01_17h39.16.323,musicalMathTest,2022.2.4,59.99358066592561,
music\calm\vocals\You & Me featuring Ural Thomas (90) by Bridge City Revival.wav,you and me,calm,vocals,1,90,A,add,53,26,79,80,87,80,0,3,3,7,0,1,1,30,,,,,,,,,,,,,,,,,,,,,,,,,,,,,,,343.34680669999216,343.34680669999216,343.34680669999216,343.34680669999216,343.34680669999216,0.007842599996365607,343.34680669999216,True,-0.09351851851851851,-0.4027777777777778,1,0,0,ansTwo,,,,,,,,,,,,,,,,,001,2022-11-01_17h39.16.323,musicalMathTest,2022.2.4,59.99358066592561,
music\calm\vocals\You & Me featuring Ural Thomas (90) by Bridge City Revival.wav,you and me,calm,vocals,1,90,A,multiply,2,11,22,26,29,23,0,3,3,7,0,2,2,89,,,,,,,,,,,,,,,,,,,,,,,,,,,,,,,351.0800583999371,351.0800583999371,351.0800583999371,351.0800583999371,351.0800583999371,0.007349299965426326,351.0800583999371,True,0.10462962962962963,-0.4064814814814815,1,0,0,ansThree,,,,,,,,,,,,,,,,,001,2022-11-01_17h39.16.323,musicalMathTest,2022.2.4,59.99358066592561,
music\calm\vocals\You & Me featuring Ural Thomas (90) by Bridge City Revival.wav,you and me,calm,vocals,1,90,A,multiply,5,19,95,102,96,100,0,3,3,7,0,3,3,112,,,,,,,,,,,,,,,,,,,,,,,,,,,,,,,353.5797953000292,353.5797953000292,353.5797953000292,353.5797953000292,353.5797953000292,0.00676939997356385,353.5797953000292,True,0.10648148148148148,-0.40370370370370373,1,0,0,ansThree,,,,,,,,,,,,,,,,,001,2022-11-01_17h39.16.323,musicalMathTest,2022.2.4,59.99358066592561,
music\calm\vocals\You & Me featuring Ural Thomas (90) by Bridge City Revival.wav,you and me,calm,vocals,1,90,A,add,56,54,110,116,118,122,0,3,3,7,0,4,4,3,,,,,,,,,,,,,,,,,,,,,,,,,,,,,,,368.6631468000123,368.6631468000123,368.6631468000123,368.6631468000123,368.6631468000123,0.006399499950930476,368.6631468000123,True,-0.2833333333333333,-0.40370370370370373,1,0,0,ansOne,,,,,,,,,,,,,,,,,001,2022-11-01_17h39.16.323,musicalMathTest,2022.2.4,59.99358066592561,
music\calm\vocals\You & Me featuring Ural Thomas (90) by Bridge City Revival.wav,you and me,calm,vocals,1,90,A,multiply,14,5,70,73,77,75,0,3,3,7,0,5,5,98,,,,,,,,,,,,,,,,,,,,,,,,,,,,,,,374.2963863000041,374.2963863000041,374.2963863000041,374.2963863000041,374.2963863000041,0.006229899940080941,374.2963863000041,True,-0.2833333333333333,-0.40370370370370373,1,0,0,ansOne,,,,,,,,,,,,,,,,,001,2022-11-01_17h39.16.323,musicalMathTest,2022.2.4,59.99358066592561,
music\calm\vocals\You & Me featuring Ural Thomas (90) by Bridge City Revival.wav,you and me,calm,vocals,1,90,A,multiply,10,19,190,191,192,193,0,3,3,7,0,6,6,96,,,,,,,,,,,,,,,,,,,,,,,,,,,,,,,375.7963988999836,375.7963988999836,375.7963988999836,375.7963988999836,375.7963988999836,0.006176399998366833,375.7963988999836,True,-0.0824074074074074,-0.40185185185185185,1,0,0,ansTwo,,,,,,,,,,,,,,,,,001,2022-11-01_17h39.16.323,musicalMathTest,2022.2.4,59.99358066592561,
music\calm\vocals\You & Me featuring Ural Thomas (90) by Bridge City Revival.wav,you and me,calm,vocals,1,90,A,add,58,26,84,87,91,95,0,3,3,7,0,7,7,26,,,,,,,,,,,,,,,,,,,,,,,,,,,,,,,379.26301670004614,379.26301670004614,379.26301670004614,379.26301670004614,379.26301670004614,0.006378900026902556,379.26301670004614,True,0.09907407407407408,-0.4,1,0,0,ansThree,,,,,,,,,,,,,,,,,001,2022-11-01_17h39.16.323,musicalMathTest,2022.2.4,59.99358066592561,
music\calm\vocals\You & Me featuring Ural Thomas (90) by Bridge City Revival.wav,you and me,calm,vocals,1,90,A,multiply,11,5,55,58,56,62,0,3,3,7,0,8,8,101,,,,,,,,,,,,,,,,,,,,,,,,,,,,,,,387.8962341999868,387.8962341999868,387.8962341999868,387.8962341999868,387.8962341999868,0.006116800010204315,387.8962341999868,True,-0.2861111111111111,-0.40185185185185185,1,0,0,ansOne,,,,,,,,,,,,,,,,,001,2022-11-01_17h39.16.323,musicalMathTest,2022.2.4,59.99358066592561,
music\calm\vocals\You & Me featuring Ural Thomas (90) by Bridge City Revival.wav,you and me,calm,vocals,1,90,A,multiply,5,6,30,36,38,42,0,3,3,7,0,9,9,71,,,,,,,,,,,,,,,,,,,,,,,,,,,,,,,389.8297116999747,389.8297116999747,389.8297116999747,389.8297116999747,389.8297116999747,0.0059238000540062785,389.8297116999747,True,-0.11018518518518519,-0.39814814814814814,1,0,0,ansTwo,,,,,,,,,,,,,,,,,001,2022-11-01_17h39.16.323,musicalMathTest,2022.2.4,59.99358066592561,
music\calm\vocals\You & Me featuring Ural Thomas (90) by Bridge City Revival.wav,you and me,calm,vocals,1,90,A,multiply,5,6,30,31,38,37,0,3,3,7,0,10,10,111,,,,,,,,,,,,,,,,,,,,,,,,,,,,,,,393.59617050003726,393.59617050003726,393.59617050003726,393.59617050003726,393.59617050003726,0.0048207000363618135,393.59617050003726,True,0.09537037037037037,-0.39814814814814814,1,0,0,ansThree,,,,,,,,,,,,,,,,,001,2022-11-01_17h39.16.323,musicalMathTest,2022.2.4,59.99358066592561,
music\calm\vocals\You & Me featuring Ural Thomas (90) by Bridge City Revival.wav,you and me,calm,vocals,1,90,A,multiply,14,5,70,76,77,71,0,3,3,7,0,11,11,82,,,,,,,,,,,,,,,,,,,,,,,,,,,,,,,396.0627998999553,396.0627998999553,396.0627998999553,396.0627998999553,396.0627998999553,0.006826000055298209,396.0627998999553,True,-0.2953703703703704,-0.40370370370370373,1,0,0,ansOne,,,,,,,,,,,,,,,,,001,2022-11-01_17h39.16.323,musicalMathTest,2022.2.4,59.99358066592561,
music\calm\vocals\You & Me featuring Ural Thomas (90) by Bridge City Revival.wav,you and me,calm,vocals,1,90,A,subtract,53,26,27,31,29,34,0,3,3,7,0,12,12,61,,,,,,,,,,,,,,,,,,,,,,,,,,,,,,,398.7461084999377,398.7461084999377,398.7461084999377,398.7461084999377,398.7461084999377,0.006261000060476363,398.7461084999377,True,-0.1111111111111111,-0.40370370370370373,1,0,0,ansTwo,,,,,,,,,,,,,,,,,001,2022-11-01_17h39.16.323,musicalMathTest,2022.2.4,59.99358066592561,
music\calm\vocals\You & Me featuring Ural Thomas (90) by Bridge City Revival.wav,you and me,calm,vocals,1,90,A,subtract,49,44,5,6,13,11,0,3,3,7,0,13,13,33,,,,,,,,,,,,,,,,,,,,,,,,,,,,,,,412.4959172999952,412.4959172999952,412.4959172999952,412.4959172999952,412.4959172999952,0.006815599976107478,412.4959172999952,True,-0.10648148148148148,-0.3990740740740741,1,0,0,ansTwo,,,,,,,,,,,,,,,,,001,2022-11-01_17h39.16.323,musicalMathTest,2022.2.4,59.99358066592561,
music\calm\vocals\You & Me featuring Ural Thomas (90) by Bridge City Revival.wav,you and me,calm,vocals,1,90,A,add,53,11,64,68,67,71,0,3,3,7,0,14,14,17,,,,,,,,,,,,,,,,,,,,,,,,,,,,,,,415.5458884999389,415.5458884999389,415.5458884999389,415.5458884999389,415.5458884999389,0.005977699998766184,415.5458884999389,True,-0.10648148148148148,-0.3990740740740741,1,0,0,ansTwo,,,,,,,,,,,,,,,,,001,2022-11-01_17h39.16.323,musicalMathTest,2022.2.4,59.99358066592561,
music\calm\vocals\You & Me featuring Ural Thomas (90) by Bridge City Revival.wav,you and me,calm,vocals,1,90,A,multiply,14,2,28,34,38,42,0,3,3,7,0,15,15,114,,,,,,,,,,,,,,,,,,,,,,,,,,,,,,,418.1125179999508,418.1125179999508,418.1125179999508,418.1125179999508,418.1125179999508,0.006099599995650351,418.1125179999508,True,-0.10740740740740741,-0.3990740740740741,1,0,0,ansTwo,,,,,,,,,,,,,,,,,001,2022-11-01_17h39.16.323,musicalMathTest,2022.2.4,59.99358066592561,
music\calm\vocals\You & Me featuring Ural Thomas (90) by Bridge City Revival.wav,you and me,calm,vocals,1,90,A,add,57,54,111,115,118,112,0,3,3,7,0,16,16,9,,,,,,,,,,,,,,,,,,,,,,,,,,,,,,,419.5125052999938,419.5125052999938,419.5125052999938,419.5125052999938,419.5125052999938,0.0060767000541090965,419.5125052999938,True,0.09722222222222222,-0.4064814814814815,1,0,0,ansThree,,,,,,,,,,,,,,,,,001,2022-11-01_17h39.16.323,musicalMathTest,2022.2.4,59.99358066592561,
music\calm\vocals\You & Me featuring Ural Thomas (90) by Bridge City Revival.wav,you and me,calm,vocals,1,90,A,multiply,10,6,60,66,70,67,0,3,3,7,0,17,17,79,,,,,,,,,,,,,,,,,,,,,,,,,,,,,,,423.4957646999974,423.4957646999974,423.4957646999974,423.4957646999974,423.4957646999974,0.006703500053845346,423.4957646999974,True,-0.30277777777777776,-0.40370370370370373,1,0,0,ansOne,,,,,,,,,,,,,,,,,001,2022-11-01_17h39.16.323,musicalMathTest,2022.2.4,59.99358066592561,
music\active\instrumentals\Believe It (90) (Instrumental) by Ty Magenta.wav,believe it,active,instrumental,1,90,A,subtract,51,12,39,47,43,41,0,4,4,0,0,0,0,38,,,,,,,,,,,,,,,,,,,,,,,,430.5790438000113,0.004323899978771806,-0.13796296296296295,-0.30648148148148147,1,0,0,432.42903250001837,432.42903250001837,432.42903250001837,432.42903250001837,432.42903250001837,0.020460200030356646,432.42903250001837,True,0.11018518518518519,-0.3962962962962963,1,0,0,ansThree,425.5790956999408,430.5790438000113,,,,,,,,,,,,,,,001,2022-11-01_17h39.16.323,musicalMathTest,2022.2.4,59.99358066592561,
music\active\instrumentals\Believe It (90) (Instrumental) by Ty Magenta.wav,believe it,active,instrumental,1,90,A,multiply,20,5,100,101,104,108,0,4,4,0,0,1,1,99,,,,,,,,,,,,,,,,,,,,,,,,,,,,,,,439.6789550000103,439.6789550000103,439.6789550000103,439.6789550000103,439.6789550000103,0.006160299992188811,439.6789550000103,True,-0.3037037037037037,-0.4,1,0,0,ansOne,,,,,,,,,,,,,,,,,001,2022-11-01_17h39.16.323,musicalMathTest,2022.2.4,59.99358066592561,
music\active\instrumentals\Believe It (90) (Instrumental) by Ty Magenta.wav,believe it,active,instrumental,1,90,A,subtract,47,46,1,6,4,8,0,4,4,0,0,2,2,61,,,,,,,,,,,,,,,,,,,,,,,,,,,,,,,442.3621907000197,442.3621907000197,442.3621907000197,442.3621907000197,442.3621907000197,0.006020900094881654,442.3621907000197,True,0.10462962962962963,-0.39814814814814814,1,0,0,ansThree,,,,,,,,,,,,,,,,,001,2022-11-01_17h39.16.323,musicalMathTest,2022.2.4,59.99358066592561,
music\active\instrumentals\Believe It (90) (Instrumental) by Ty Magenta.wav,believe it,active,instrumental,1,90,A,subtract,41,34,7,9,13,11,0,4,4,0,0,3,3,36,,,,,,,,,,,,,,,,,,,,,,,,,,,,,,,445.1788831000449,445.1788831000449,445.1788831000449,445.1788831000449,445.1788831000449,0.006135599920526147,445.1788831000449,True,0.09907407407407408,-0.3990740740740741,1,0,0,ansThree,,,,,,,,,,,,,,,,,001,2022-11-01_17h39.16.323,musicalMathTest,2022.2.4,59.99358066592561,
music\active\instrumentals\Believe It (90) (Instrumental) by Ty Magenta.wav,believe it,active,instrumental,1,90,A,add,42,41,83,85,90,91,0,4,4,0,0,4,4,29,,,,,,,,,,,,,,,,,,,,,,,,,,,,,,,449.27882689994294,449.27882689994294,449.27882689994294,449.27882689994294,449.27882689994294,0.006265799980610609,449.27882689994294,True,0.09351851851851851,-0.40370370370370373,1,0,0,ansThree,,,,,,,,,,,,,,,,,001,2022-11-01_17h39.16.323,musicalMathTest,2022.2.4,59.99358066592561,
music\active\instrumentals\Believe It (90) (Instrumental) by Ty Magenta.wav,believe it,active,instrumental,1,90,A,multiply,10,20,200,205,206,208,0,4,4,0,0,5,5,95,,,,,,,,,,,,,,,,,,,,,,,,,,,,,,,452.01207379996777,452.01207379996777,452.01207379996777,452.01207379996777,452.01207379996777,0.0062766000628471375,452.01207379996777,True,0.09351851851851851,-0.40370370370370373,1,0,0,ansThree,,,,,,,,,,,,,,,,,001,2022-11-01_17h39.16.323,musicalMathTest,2022.2.4,59.99358066592561,
music\active\instrumentals\Believe It (90) (Instrumental) by Ty Magenta.wav,believe it,active,instrumental,1,90,A,multiply,7,10,70,72,71,80,0,4,4,0,0,6,6,68,,,,,,,,,,,,,,,,,,,,,,,,,,,,,,,453.17873679997865,453.17873679997865,453.17873679997865,453.17873679997865,453.17873679997865,0.006440000026486814,453.17873679997865,True,-0.2916666666666667,-0.3907407407407407,1,0,0,ansOne,,,,,,,,,,,,,,,,,001,2022-11-01_17h39.16.323,musicalMathTest,2022.2.4,59.99358066592561,
music\active\instrumentals\Believe It (90) (Instrumental) by Ty Magenta.wav,believe it,active,instrumental,1,90,A,multiply,7,10,70,78,71,80,0,4,4,0,0,7,7,92,,,,,,,,,,,,,,,,,,,,,,,,,,,,,,,455.4620234000031,455.4620234000031,455.4620234000031,455.4620234000031,455.4620234000031,0.00445949996355921,455.4620234000031,True,-0.29814814814814816,-0.4009259259259259,1,0,0,ansOne,,,,,,,,,,,,,,,,,001,2022-11-01_17h39.16.323,musicalMathTest,2022.2.4,59.99358066592561,
music\active\instrumentals\Believe It (90) (Instrumental) by Ty Magenta.wav,believe it,active,instrumental,1,90,A,subtract,61,59,2,5,6,8,0,4,4,0,0,8,8,43,,,,,,,,,,,,,,,,,,,,,,,,,,,,,,,456.74534609995317,456.74534609995317,456.74534609995317,456.74534609995317,456.74534609995317,0.005566600011661649,456.74534609995317,True,-0.29907407407407405,-0.4009259259259259,1,0,0,ansOne,,,,,,,,,,,,,,,,,001,2022-11-01_17h39.16.323,musicalMathTest,2022.2.4,59.99358066592561,
music\active\instrumentals\Believe It (90) (Instrumental) by Ty Magenta.wav,believe it,active,instrumental,1,90,A,multiply,7,10,70,74,72,74,0,4,4,0,0,9,9,76,,,,,,,,,,,,,,,,,,,,,,,,,,,,,,,459.29536730004475,459.29536730004475,459.29536730004475,459.29536730004475,459.29536730004475,0.006086699897423387,459.29536730004475,True,-0.09814814814814815,-0.3925925925925926,1,0,0,ansTwo,,,,,,,,,,,,,,,,,001,2022-11-01_17h39.16.323,musicalMathTest,2022.2.4,59.99358066592561,
music\active\instrumentals\Believe It (90) (Instrumental) by Ty Magenta.wav,believe it,active,instrumental,1,90,A,multiply,10,5,50,51,60,64,0,4,4,0,0,10,10,98,,,,,,,,,,,,,,,,,,,,,,,,,,,,,,,460.7453132000519,460.7453132000519,460.7453132000519,460.7453132000519,460.7453132000519,0.005857100011780858,460.7453132000519,True,-0.30833333333333335,-0.39166666666666666,1,0,0,ansOne,,,,,,,,,,,,,,,,,001,2022-11-01_17h39.16.323,musicalMathTest,2022.2.4,59.99358066592561,
music\active\instrumentals\Believe It (90) (Instrumental) by Ty Magenta.wav,believe it,active,instrumental,1,90,A,subtract,61,59,2,3,8,9,0,4,4,0,0,11,11,40,,,,,,,,,,,,,,,,,,,,,,,,,,,,,,,462.6786384000443,462.6786384000443,462.6786384000443,462.6786384000443,462.6786384000443,0.006633499986492097,462.6786384000443,True,-0.10185185185185185,-0.4027777777777778,1,0,0,ansTwo,,,,,,,,,,,,,,,,,001,2022-11-01_17h39.16.323,musicalMathTest,2022.2.4,59.99358066592561,
music\active\instrumentals\Believe It (90) (Instrumental) by Ty Magenta.wav,believe it,active,instrumental,1,90,A,multiply,10,10,100,103,107,101,0,4,4,0,0,12,12,62,,,,,,,,,,,,,,,,,,,,,,,,,,,,,,,465.26192870002706,465.26192870002706,465.26192870002706,465.26192870002706,465.26192870002706,0.006296299980022013,465.26192870002706,True,-0.29444444444444445,-0.39814814814814814,1,0,0,ansOne,,,,,,,,,,,,,,,,,001,2022-11-01_17h39.16.323,musicalMathTest,2022.2.4,59.99358066592561,
music\active\instrumentals\Believe It (90) (Instrumental) by Ty Magenta.wav,believe it,active,instrumental,1,90,A,multiply,10,10,100,101,105,106,0,4,4,0,0,13,13,94,,,,,,,,,,,,,,,,,,,,,,,,,,,,,,,466.7285705000395,466.7285705000395,466.7285705000395,466.7285705000395,466.7285705000395,0.004481100011616945,466.7285705000395,True,-0.287962962962963,-0.4009259259259259,1,0,0,ansOne,,,,,,,,,,,,,,,,,001,2022-11-01_17h39.16.323,musicalMathTest,2022.2.4,59.99358066592561,
music\active\instrumentals\Believe It (90) (Instrumental) by Ty Magenta.wav,believe it,active,instrumental,1,90,A,add,52,51,103,104,107,108,0,4,4,0,0,14,14,23,,,,,,,,,,,,,,,,,,,,,,,,,,,,,,,469.72852560004685,469.72852560004685,469.72852560004685,469.72852560004685,469.72852560004685,0.006147500011138618,469.72852560004685,True,0.08888888888888889,-0.40185185185185185,1,0,0,ansThree,,,,,,,,,,,,,,,,,001,2022-11-01_17h39.16.323,musicalMathTest,2022.2.4,59.99358066592561,
music\active\instrumentals\Believe It (90) (Instrumental) by Ty Magenta.wav,believe it,active,instrumental,1,90,A,subtract,59,41,18,25,26,22,0,4,4,0,0,15,15,56,,,,,,,,,,,,,,,,,,,,,,,,,,,,,,,471.7618960000109,471.7618960000109,471.7618960000109,471.7618960000109,471.7618960000109,0.005948000005446374,471.7618960000109,True,0.08796296296296297,-0.4009259259259259,1,0,0,ansThree,,,,,,,,,,,,,,,,,001,2022-11-01_17h39.16.323,musicalMathTest,2022.2.4,59.99358066592561,
music\active\instrumentals\Believe It (90) (Instrumental) by Ty Magenta.wav,believe it,active,instrumental,1,90,A,add,51,47,98,102,105,108,0,4,4,0,0,16,16,20,,,,,,,,,,,,,,,,,,,,,,,,,,,,,,,477.978470299975,477.978470299975,477.978470299975,477.978470299975,477.978470299975,0.006458499934524298,477.978470299975,True,-0.09814814814814815,-0.3962962962962963,1,0,0,ansTwo,,,,,,,,,,,,,,,,,001,2022-11-01_17h39.16.323,musicalMathTest,2022.2.4,59.99358066592561,
music\active\instrumentals\Believe It (90) (Instrumental) by Ty Magenta.wav,believe it,active,instrumental,1,90,A,add,41,33,74,82,75,76,0,4,4,0,0,17,17,1,,,,,,,,,,,,,,,,,,,,,,,,,,,,,,,482.3283174999524,482.3283174999524,482.3283174999524,482.3283174999524,482.3283174999524,0.005947300000116229,482.3283174999524,True,-0.09814814814814815,-0.3962962962962963,1,0,0,ansTwo,,,,,,,,,,,,,,,,,001,2022-11-01_17h39.16.323,musicalMathTest,2022.2.4,59.99358066592561,
music\active\instrumentals\Believe It (90) (Instrumental) by Ty Magenta.wav,believe it,active,instrumental,1,90,A,subtract,47,33,14,21,18,4,0,4,4,0,0,18,18,35,,,,,,,,,,,,,,,,,,,,,,,,,,,,,,,485.5283271999797,485.5283271999797,485.5283271999797,485.5283271999797,485.5283271999797,0.006040400010533631,485.5283271999797,True,-0.09722222222222222,-0.4064814814814815,1,0,0,ansTwo,,,,,,,,,,,,,,,,,001,2022-11-01_17h39.16.323,musicalMathTest,2022.2.4,59.99358066592561,
music\active\instrumentals\Believe It (90) (Instrumental) by Ty Magenta.wav,believe it,active,instrumental,1,90,A,add,50,46,96,98,101,99,0,4,4,0,0,19,19,18,,,,,,,,,,,,,,,,,,,,,,,,,,,,,,,493.49490269995295,493.49490269995295,493.49490269995295,493.49490269995295,493.49490269995295,0.006125099956989288,493.49490269995295,True,-0.28888888888888886,-0.4083333333333333,1,0,0,ansOne,,,,,,,,,,,,,,,,,001,2022-11-01_17h39.16.323,musicalMathTest,2022.2.4,59.99358066592561,
music\active\instrumentals\Believe It (90) (Instrumental) by Ty Magenta.wav,believe it,active,instrumental,1,90,A,add,60,59,119,124,127,124,0,4,4,0,0,20,20,3,,,,,,,,,,,,,,,,,,,,,,,,,,,,,,,497.32822859997395,497.32822859997395,497.32822859997395,497.32822859997395,497.32822859997395,0.006596199935302138,497.32822859997395,True,-0.09814814814814815,-0.40555555555555556,1,0,0,ansTwo,,,,,,,,,,,,,,,,,001,2022-11-01_17h39.16.323,musicalMathTest,2022.2.4,59.99358066592561,
music\active\instrumentals\Believe It (90) (Instrumental) by Ty Magenta.wav,believe it,active,instrumental,1,90,A,subtract,51,34,17,20,21,23,0,4,4,0,0,21,21,46,,,,,,,,,,,,,,,,,,,,,,,,,,,,,,,501.11150420003105,501.11150420003105,501.11150420003105,501.11150420003105,501.11150420003105,0.006683300016447902,501.11150420003105,True,-0.09444444444444444,-0.4,1,0,0,ansTwo,,,,,,,,,,,,,,,,,001,2022-11-01_17h39.16.323,musicalMathTest,2022.2.4,59.99358066592561,
music\active\instrumentals\Believe It (90) (Instrumental) by Ty Magenta.wav,believe it,active,instrumental,1,90,A,add,48,47,95,96,98,105,0,4,4,0,0,22,22,24,,,,,,,,,,,,,,,,,,,,,,,,,,,,,,,510.0280026999535,510.0280026999535,510.0280026999535,510.0280026999535,510.0280026999535,0.006084099994041026,510.0280026999535,True,-0.10925925925925926,-0.3972222222222222,1,0,0,ansTwo,,,,,,,,,,,,,,,,,001,2022-11-01_17h39.16.323,musicalMathTest,2022.2.4,59.99358066592561,
music\active\instrumentals\Believe It (90) (Instrumental) by Ty Magenta.wav,believe it,active,instrumental,1,90,A,multiply,7,5,35,39,43,36,0,4,4,0,0,23,23,84,,,,,,,,,,,,,,,,,,,,,,,,,,,,,,,517.3779313999694,517.3779313999694,517.3779313999694,517.3779313999694,517.3779313999694,0.0057360000209882855,517.3779313999694,True,-0.1111111111111111,-0.39814814814814814,1,0,0,ansTwo,,,,,,,,,,,,,,,,,001,2022-11-01_17h39.16.323,musicalMathTest,2022.2.4,59.99358066592561,
music\active\instrumentals\Believe It (90) (Instrumental) by Ty Magenta.wav,believe it,active,instrumental,1,90,A,multiply,2,7,14,16,17,22,0,4,4,0,0,24,24,88,,,,,,,,,,,,,,,,,,,,,,,,,,,,,,,518.7779226000421,518.7779226000421,518.7779226000421,518.7779226000421,518.7779226000421,0.005851699970662594,518.7779226000421,True,0.09259259259259259,-0.4027777777777778,1,0,0,ansThree,,,,,,,,,,,,,,,,,001,2022-11-01_17h39.16.323,musicalMathTest,2022.2.4,59.99358066592561,
music\active\instrumentals\Believe It (90) (Instrumental) by Ty Magenta.wav,believe it,active,instrumental,1,90,A,add,47,34,81,85,89,83,0,4,4,0,0,25,25,8,,,,,,,,,,,,,,,,,,,,,,,,,,,,,,,520.5445877000457,520.5445877000457,520.5445877000457,520.5445877000457,520.5445877000457,0.005867799976840615,520.5445877000457,True,0.08796296296296297,-0.40370370370370373,1,0,0,ansThree,,,,,,,,,,,,,,,,,001,2022-11-01_17h39.16.323,musicalMathTest,2022.2.4,59.99358066592561,
music\calm\instrumentals\Younger Then (90) (Instrumental) by Allebasi.wav,younger then,calm,instrumental,1,90,A,multiply,18,10,180,190,184,182,0,5,5,8,0,0,0,68,,,,,,,,,,,,,,,,,,,,,,,,528.2278266999638,0.004510400001890957,0.024074074074074074,-0.28888888888888886,1,0,0,529.6445033999626,529.6445033999626,529.6445033999626,529.6445033999626,529.6445033999626,0.024088899954222143,529.6445033999626,True,-0.10092592592592593,-0.3972222222222222,1,0,0,ansTwo,523.227866100031,528.2278266999638,,,,,,,,,,,,,,,001,2022-11-01_17h39.16.323,musicalMathTest,2022.2.4,59.99358066592561,
music\calm\instrumentals\Younger Then (90) (Instrumental) by Allebasi.wav,younger then,calm,instrumental,1,90,A,multiply,12,5,60,67,62,64,0,5,5,8,0,1,1,82,,,,,,,,,,,,,,,,,,,,,,,,,,,,,,,532.1777368000476,532.1777368000476,532.1777368000476,532.1777368000476,532.1777368000476,0.005773899960331619,532.1777368000476,True,-0.3101851851851852,-0.3907407407407407,1,0,0,ansOne,,,,,,,,,,,,,,,,,001,2022-11-01_17h39.16.323,musicalMathTest,2022.2.4,59.99358066592561,
music\calm\instrumentals\Younger Then (90) (Instrumental) by Allebasi.wav,younger then,calm,instrumental,1,90,A,subtract,50,50,0,7,5,8,0,5,5,8,0,2,2,37,,,,,,,,,,,,,,,,,,,,,,,,,,,,,,,533.961060600006,533.961060600006,533.961060600006,533.961060600006,533.961060600006,0.005962099996395409,533.961060600006,True,-0.0962962962962963,-0.39166666666666666,1,0,0,ansTwo,,,,,,,,,,,,,,,,,001,2022-11-01_17h39.16.323,musicalMathTest,2022.2.4,59.99358066592561,
music\calm\instrumentals\Younger Then (90) (Instrumental) by Allebasi.wav,younger then,calm,instrumental,1,90,A,multiply,10,18,180,188,190,194,0,5,5,8,0,3,3,96,,,,,,,,,,,,,,,,,,,,,,,,,,,,,,,536.1276951000327,536.1276951000327,536.1276951000327,536.1276951000327,536.1276951000327,0.005940200062468648,536.1276951000327,True,-0.0962962962962963,-0.39166666666666666,1,0,0,ansTwo,,,,,,,,,,,,,,,,,001,2022-11-01_17h39.16.323,musicalMathTest,2022.2.4,59.99358066592561,
music\calm\instrumentals\Younger Then (90) (Instrumental) by Allebasi.wav,younger then,calm,instrumental,1,90,A,multiply,10,12,120,124,128,132,0,5,5,8,0,4,4,78,,,,,,,,,,,,,,,,,,,,,,,,,,,,,,,537.4110194999957,537.4110194999957,537.4110194999957,537.4110194999957,537.4110194999957,0.006227900041267276,537.4110194999957,True,-0.0962962962962963,-0.39351851851851855,1,0,0,ansTwo,,,,,,,,,,,,,,,,,001,2022-11-01_17h39.16.323,musicalMathTest,2022.2.4,59.99358066592561,
music\calm\instrumentals\Younger Then (90) (Instrumental) by Allebasi.wav,younger then,calm,instrumental,1,90,A,add,52,50,102,107,112,107,0,5,5,8,0,5,5,12,,,,,,,,,,,,,,,,,,,,,,,,,,,,,,,539.0276533999713,539.0276533999713,539.0276533999713,539.0276533999713,539.0276533999713,0.006230500061064959,539.0276533999713,True,0.11296296296296296,-0.4009259259259259,1,0,0,ansThree,,,,,,,,,,,,,,,,,001,2022-11-01_17h39.16.323,musicalMathTest,2022.2.4,59.99358066592561,
music\calm\instrumentals\Younger Then (90) (Instrumental) by Allebasi.wav,younger then,calm,instrumental,1,90,A,multiply,5,18,90,92,91,94,0,5,5,8,0,6,6,112,,,,,,,,,,,,,,,,,,,,,,,,,,,,,,,541.3109779000515,541.3109779000515,541.3109779000515,541.3109779000515,541.3109779000515,0.006187200080603361,541.3109779000515,True,0.11296296296296296,-0.4009259259259259,1,0,0,ansThree,,,,,,,,,,,,,,,,,001,2022-11-01_17h39.16.323,musicalMathTest,2022.2.4,59.99358066592561,
music\calm\instrumentals\Younger Then (90) (Instrumental) by Allebasi.wav,younger then,calm,instrumental,1,90,A,add,43,22,65,66,71,67,0,5,5,8,0,7,7,24,,,,,,,,,,,,,,,,,,,,,,,,,,,,,,,542.5776261000428,542.5776261000428,542.5776261000428,542.5776261000428,542.5776261000428,0.0060418000211939216,542.5776261000428,True,-0.0962962962962963,-0.3962962962962963,1,0,0,ansTwo,,,,,,,,,,,,,,,,,001,2022-11-01_17h39.16.323,musicalMathTest,2022.2.4,59.99358066592561,
music\calm\instrumentals\Younger Then (90) (Instrumental) by Allebasi.wav,younger then,calm,instrumental,1,90,A,multiply,10,12,120,128,130,122,0,5,5,8,0,8,8,102,,,,,,,,,,,,,,,,,,,,,,,,,,,,,,,549.1942277000053,549.1942277000053,549.1942277000053,549.1942277000053,549.1942277000053,0.006706599961034954,549.1942277000053,True,-0.08148148148148149,-0.39444444444444443,1,0,0,ansTwo,,,,,,,,,,,,,,,,,001,2022-11-01_17h39.16.323,musicalMathTest,2022.2.4,59.99358066592561,
music\calm\instrumentals\Younger Then (90) (Instrumental) by Allebasi.wav,younger then,calm,instrumental,1,90,A,multiply,18,10,180,184,181,185,0,5,5,8,0,9,9,76,,,,,,,,,,,,,,,,,,,,,,,,,,,,,,,550.3775962999789,550.3775962999789,550.3775962999789,550.3775962999789,550.3775962999789,0.005920700030401349,550.3775962999789,True,-0.2796296296296296,-0.38981481481481484,1,0,0,ansOne,,,,,,,,,,,,,,,,,001,2022-11-01_17h39.16.323,musicalMathTest,2022.2.4,59.99358066592561,
music\calm\instrumentals\Younger Then (90) (Instrumental) by Allebasi.wav,younger then,calm,instrumental,1,90,A,multiply,12,10,120,124,123,128,0,5,5,8,0,10,10,66,,,,,,,,,,,,,,,,,,,,,,,,,,,,,,,552.4775115000084,552.4775115000084,552.4775115000084,552.4775115000084,552.4775115000084,0.006162100005894899,552.4775115000084,True,-0.0824074074074074,-0.40370370370370373,1,0,0,ansTwo,,,,,,,,,,,,,,,,,001,2022-11-01_17h39.16.323,musicalMathTest,2022.2.4,59.99358066592561,
music\calm\instrumentals\Younger Then (90) (Instrumental) by Allebasi.wav,younger then,calm,instrumental,1,90,A,subtract,44,43,1,4,2,6,0,5,5,8,0,11,11,36,,,,,,,,,,,,,,,,,,,,,,,,,,,,,,,553.9107794000302,553.9107794000302,553.9107794000302,553.9107794000302,553.9107794000302,0.005723800044506788,553.9107794000302,True,-0.10277777777777777,-0.3962962962962963,1,0,0,ansTwo,,,,,,,,,,,,,,,,,001,2022-11-01_17h39.16.323,musicalMathTest,2022.2.4,59.99358066592561,
music\calm\instrumentals\Younger Then (90) (Instrumental) by Allebasi.wav,younger then,calm,instrumental,1,90,A,multiply,2,10,20,21,26,22,0,5,5,8,0,12,12,67,,,,,,,,,,,,,,,,,,,,,,,,,,,,,,,555.7108025000198,555.7108025000198,555.7108025000198,555.7108025000198,555.7108025000198,0.006145199993625283,555.7108025000198,True,-0.29444444444444445,-0.4064814814814815,1,0,0,ansOne,,,,,,,,,,,,,,,,,001,2022-11-01_17h39.16.323,musicalMathTest,2022.2.4,59.99358066592561,
music\calm\instrumentals\Younger Then (90) (Instrumental) by Allebasi.wav,younger then,calm,instrumental,1,90,A,add,50,50,100,101,110,106,0,5,5,8,0,13,13,3,,,,,,,,,,,,,,,,,,,,,,,,,,,,,,,558.0607493999414,558.0607493999414,558.0607493999414,558.0607493999414,558.0607493999414,0.006328899995423853,558.0607493999414,True,0.10648148148148148,-0.40185185185185185,1,0,0,ansThree,,,,,,,,,,,,,,,,,001,2022-11-01_17h39.16.323,musicalMathTest,2022.2.4,59.99358066592561,
music\calm\instrumentals\Younger Then (90) (Instrumental) by Allebasi.wav,younger then,calm,instrumental,1,90,A,subtract,50,25,25,31,32,29,0,5,5,8,0,14,14,56,,,,,,,,,,,,,,,,,,,,,,,,,,,,,,,559.8106980000157,559.8106980000157,559.8106980000157,559.8106980000157,559.8106980000157,0.006680999998934567,559.8106980000157,True,-0.29259259259259257,-0.39814814814814814,1,0,0,ansOne,,,,,,,,,,,,,,,,,001,2022-11-01_17h39.16.323,musicalMathTest,2022.2.4,59.99358066592561,
music\calm\instrumentals\Younger Then (90) (Instrumental) by Allebasi.wav,younger then,calm,instrumental,1,90,A,multiply,12,5,60,70,64,63,0,5,5,8,0,15,15,98,,,,,,,,,,,,,,,,,,,,,,,,,,,,,,,563.0940121000167,563.0940121000167,563.0940121000167,563.0940121000167,563.0940121000167,0.00625809992197901,563.0940121000167,True,-0.11203703703703703,-0.39814814814814814,1,0,0,ansTwo,,,,,,,,,,,,,,,,,001,2022-11-01_17h39.16.323,musicalMathTest,2022.2.4,59.99358066592561,
music\calm\instrumentals\Younger Then (90) (Instrumental) by Allebasi.wav,younger then,calm,instrumental,1,90,A,multiply,10,12,120,130,132,130,0,5,5,8,0,16,16,94,,,,,,,,,,,,,,,,,,,,,,,,,,,,,,,566.7273102999898,566.7273102999898,566.7273102999898,566.7273102999898,566.7273102999898,0.006568399956449866,566.7273102999898,True,-0.2953703703703704,-0.3962962962962963,1,0,0,ansOne,,,,,,,,,,,,,,,,,001,2022-11-01_17h39.16.323,musicalMathTest,2022.2.4,59.99358066592561,
music\calm\instrumentals\Younger Then (90) (Instrumental) by Allebasi.wav,younger then,calm,instrumental,1,90,A,add,22,14,36,38,39,44,0,5,5,8,0,17,17,4,,,,,,,,,,,,,,,,,,,,,,,,,,,,,,,568.3273202000419,568.3273202000419,568.3273202000419,568.3273202000419,568.3273202000419,0.005938500049524009,568.3273202000419,True,-0.10740740740740741,-0.4046296296296296,1,0,0,ansTwo,,,,,,,,,,,,,,,,,001,2022-11-01_17h39.16.323,musicalMathTest,2022.2.4,59.99358066592561,
music\calm\instrumentals\Younger Then (90) (Instrumental) by Allebasi.wav,younger then,calm,instrumental,1,90,A,multiply,5,21,105,115,107,109,0,5,5,8,0,18,18,73,,,,,,,,,,,,,,,,,,,,,,,,,,,,,,,573.9772057000082,573.9772057000082,573.9772057000082,573.9772057000082,573.9772057000082,0.006758500006981194,573.9772057000082,True,-0.10833333333333334,-0.40555555555555556,1,0,0,ansTwo,,,,,,,,,,,,,,,,,001,2022-11-01_17h39.16.323,musicalMathTest,2022.2.4,59.99358066592561,
music\calm\instrumentals\Younger Then (90) (Instrumental) by Allebasi.wav,younger then,calm,instrumental,1,90,A,subtract,22,22,0,5,4,5,0,5,5,8,0,19,19,51,,,,,,,,,,,,,,,,,,,,,,,,,,,,,,,576.093849399942,576.093849399942,576.093849399942,576.093849399942,576.093849399942,0.005879799951799214,576.093849399942,True,-0.30092592592592593,-0.40555555555555556,1,0,0,ansOne,,,,,,,,,,,,,,,,,001,2022-11-01_17h39.16.323,musicalMathTest,2022.2.4,59.99358066592561,
music\calm\instrumentals\Younger Then (90) (Instrumental) by Allebasi.wav,younger then,calm,instrumental,1,90,A,subtract,53,50,3,6,11,10,0,5,5,8,0,20,20,40,,,,,,,,,,,,,,,,,,,,,,,,,,,,,,,577.7105082999915,577.7105082999915,577.7105082999915,577.7105082999915,577.7105082999915,0.0062954999739304185,577.7105082999915,True,0.09907407407407408,-0.40370370370370373,1,0,0,ansThree,,,,,,,,,,,,,,,,,001,2022-11-01_17h39.16.323,musicalMathTest,2022.2.4,59.99358066592561,
music\calm\instrumentals\Younger Then (90) (Instrumental) by Allebasi.wav,younger then,calm,instrumental,1,90,A,multiply,21,10,210,213,214,216,0,5,5,8,0,21,21,69,,,,,,,,,,,,,,,,,,,,,,,,,,,,,,,580.0104591000127,580.0104591000127,580.0104591000127,580.0104591000127,580.0104591000127,0.006082799984142184,580.0104591000127,True,0.09351851851851851,-0.4027777777777778,1,0,0,ansThree,,,,,,,,,,,,,,,,,001,2022-11-01_17h39.16.323,musicalMathTest,2022.2.4,59.99358066592561,
music\calm\instrumentals\Younger Then (90) (Instrumental) by Allebasi.wav,younger then,calm,instrumental,1,90,A,multiply,12,10,120,126,122,127,0,5,5,8,0,22,22,74,,,,,,,,,,,,,,,,,,,,,,,,,,,,,,,582.7270961999893,582.7270961999893,582.7270961999893,582.7270961999893,582.7270961999893,0.006821000017225742,582.7270961999893,True,-0.27685185185185185,-0.4064814814814815,1,0,0,ansOne,,,,,,,,,,,,,,,,,001,2022-11-01_17h39.16.323,musicalMathTest,2022.2.4,59.99358066592561,
music\calm\instrumentals\Younger Then (90) (Instrumental) by Allebasi.wav,younger then,calm,instrumental,1,90,A,add,53,50,103,105,107,111,0,5,5,8,0,23,23,9,,,,,,,,,,,,,,,,,,,,,,,,,,,,,,,584.4770861000288,584.4770861000288,584.4770861000288,584.4770861000288,584.4770861000288,0.0059624999994412065,584.4770861000288,True,-0.08148148148148149,-0.40555555555555556,1,0,0,ansTwo,,,,,,,,,,,,,,,,,001,2022-11-01_17h39.16.323,musicalMathTest,2022.2.4,59.99358066592561,
music\calm\instrumentals\Younger Then (90) (Instrumental) by Allebasi.wav,younger then,calm,instrumental,1,90,A,multiply,12,10,120,125,127,121,0,5,5,8,0,24,24,106,,,,,,,,,,,,,,,,,,,,,,,,,,,,,,,587.2270003999583,587.2270003999583,587.2270003999583,587.2270003999583,587.2270003999583,0.00624060002155602,587.2270003999583,True,-0.30833333333333335,-0.41203703703703703,1,0,0,ansOne,,,,,,,,,,,,,,,,,001,2022-11-01_17h39.16.323,musicalMathTest,2022.2.4,59.99358066592561,
music\calm\instrumentals\Younger Then (90) (Instrumental) by Allebasi.wav,younger then,calm,instrumental,1,90,A,add,48,43,91,99,95,92,0,5,5,8,0,25,25,15,,,,,,,,,,,,,,,,,,,,,,,,,,,,,,,589.2270120000467,589.2270120000467,589.2270120000467,589.2270120000467,589.2270120000467,0.005954800057224929,589.2270120000467,True,-0.3055555555555556,-0.4074074074074074,1,0,0,ansOne,,,,,,,,,,,,,,,,,001,2022-11-01_17h39.16.323,musicalMathTest,2022.2.4,59.99358066592561,
music\calm\instrumentals\Younger Then (90) (Instrumental) by Allebasi.wav,younger then,calm,instrumental,1,90,A,subtract,26,25,1,7,9,7,0,5,5,8,0,26,26,48,,,,,,,,,,,,,,,,,,,,,,,,,,,,,,,591.0103518000105,591.0103518000105,591.0103518000105,591.0103518000105,591.0103518000105,0.0061709999572485685,591.0103518000105,True,-0.10092592592592593,-0.40555555555555556,1,0,0,ansTwo,,,,,,,,,,,,,,,,,001,2022-11-01_17h39.16.323,musicalMathTest,2022.2.4,59.99358066592561,
music\calm\instrumentals\Younger Then (90) (Instrumental) by Allebasi.wav,younger then,calm,instrumental,1,90,A,subtract,28,14,14,20,22,26,0,5,5,8,0,27,27,45,,,,,,,,,,,,,,,,,,,,,,,,,,,,,,,593.426977999974,593.426977999974,593.426977999974,593.426977999974,593.426977999974,0.005782000022009015,593.426977999974,True,-0.30648148148148147,-0.4101851851851852,1,0,0,ansOne,,,,,,,,,,,,,,,,,001,2022-11-01_17h39.16.323,musicalMathTest,2022.2.4,59.99358066592561,
music\calm\instrumentals\Younger Then (90) (Instrumental) by Allebasi.wav,younger then,calm,instrumental,1,90,A,subtract,54,49,5,12,7,6,0,5,5,8,0,28,28,31,,,,,,,,,,,,,,,,,,,,,,,,,,,,,,,596.4269152999623,596.4269152999623,596.4269152999623,596.4269152999623,596.4269152999623,0.006133600021712482,596.4269152999623,True,-0.30648148148148147,-0.4101851851851852,1,0,0,ansOne,,,,,,,,,,,,,,,,,001,2022-11-01_17h39.16.323,musicalMathTest,2022.2.4,59.99358066592561,
music\calm\instrumentals\Younger Then (90) (Instrumental) by Allebasi.wav,younger then,calm,instrumental,1,90,A,multiply,2,10,20,27,29,27,0,5,5,8,0,29,29,91,,,,,,,,,,,,,,,,,,,,,,,,,,,,,,,598.3268827999709,598.3268827999709,598.3268827999709,598.3268827999709,598.3268827999709,0.005882099969312549,598.3268827999709,True,-0.29074074074074074,-0.4111111111111111,1,0,0,ansOne,,,,,,,,,,,,,,,,,001,2022-11-01_17h39.16.323,musicalMathTest,2022.2.4,59.99358066592561,
music\calm\instrumentals\Younger Then (90) (Instrumental) by Allebasi.wav,younger then,calm,instrumental,1,90,A,subtract,49,48,1,7,6,3,0,5,5,8,0,30,30,54,,,,,,,,,,,,,,,,,,,,,,,,,,,,,,,599.3768746999558,599.3768746999558,599.3768746999558,599.3768746999558,599.3768746999558,0.0062327999621629715,599.3768746999558,True,-0.29444444444444445,-0.41203703703703703,1,0,0,ansOne,,,,,,,,,,,,,,,,,001,2022-11-01_17h39.16.323,musicalMathTest,2022.2.4,59.99358066592561,
music\calm\instrumentals\Younger Then (90) (Instrumental) by Allebasi.wav,younger then,calm,instrumental,1,90,A,multiply,10,18,180,187,186,184,0,5,5,8,0,31,31,64,,,,,,,,,,,,,,,,,,,,,,,,,,,,,,,600.5935183999827,600.5935183999827,600.5935183999827,600.5935183999827,600.5935183999827,0.00594559998717159,600.5935183999827,True,-0.10740740740740741,-0.4009259259259259,1,0,0,ansTwo,,,,,,,,,,,,,,,,,001,2022-11-01_17h39.16.323,musicalMathTest,2022.2.4,59.99358066592561,
music\calm\instrumentals\Younger Then (90) (Instrumental) by Allebasi.wav,younger then,calm,instrumental,1,90,A,add,49,28,77,79,78,81,0,5,5,8,0,32,32,26,,,,,,,,,,,,,,,,,,,,,,,,,,,,,,,602.2935325000435,602.2935325000435,602.2935325000435,602.2935325000435,602.2935325000435,0.006319799926131964,602.2935325000435,True,-0.09907407407407408,-0.3972222222222222,1,0,0,ansTwo,,,,,,,,,,,,,,,,,001,2022-11-01_17h39.16.323,musicalMathTest,2022.2.4,59.99358066592561,
music\calm\instrumentals\Younger Then (90) (Instrumental) by Allebasi.wav,younger then,calm,instrumental,1,90,A,multiply,2,10,20,22,23,30,0,5,5,8,0,33,33,75,,,,,,,,,,,,,,,,,,,,,,,,,,,,,,,608.460098600015,608.460098600015,608.460098600015,608.460098600015,608.460098600015,0.0060026999562978745,608.460098600015,True,-0.10092592592592593,-0.39814814814814814,1,0,0,ansTwo,,,,,,,,,,,,,,,,,001,2022-11-01_17h39.16.323,musicalMathTest,2022.2.4,59.99358066592561,
music\calm\instrumentals\Younger Then (90) (Instrumental) by Allebasi.wav,younger then,calm,instrumental,1,90,A,multiply,5,12,60,61,66,64,0,5,5,8,0,34,34,70,,,,,,,,,,,,,,,,,,,,,,,,,,,,,,,609.4934669999639,609.4934669999639,609.4934669999639,609.4934669999639,609.4934669999639,0.006089000031352043,609.4934669999639,True,0.09907407407407408,-0.4027777777777778,1,0,0,ansThree,,,,,,,,,,,,,,,,,001,2022-11-01_17h39.16.323,musicalMathTest,2022.2.4,59.99358066592561,
music\calm\instrumentals\Younger Then (90) (Instrumental) by Allebasi.wav,younger then,calm,instrumental,1,90,A,subtract,48,14,34,42,39,24,0,5,5,8,0,35,35,42,,,,,,,,,,,,,,,,,,,,,,,,,,,,,,,614.2767041999614,614.2767041999614,614.2767041999614,614.2767041999614,614.2767041999614,0.005973999970592558,614.2767041999614,True,-0.2972222222222222,-0.3990740740740741,1,0,0,ansOne,,,,,,,,,,,,,,,,,001,2022-11-01_17h39.16.323,musicalMathTest,2022.2.4,59.99358066592561,
music\silence.wav,silent,silent,silent,1,90,A,multiply,5,3,15,23,25,23,0,6,6,4,0,0,0,110,,,,,,,,,,,,,,,,,,,,,,,,627.0265714999987,0.0050252999644726515,0.06388888888888888,-0.31574074074074077,1,0,0,627.8932135000359,627.8932135000359,627.8932135000359,627.8932135000359,627.8932135000359,0.02163150010164827,627.8932135000359,True,-0.08518518518518518,-0.4009259259259259,1,0,0,ansTwo,622.0266004999867,627.0265714999987,,,,,,,,,,,,,,,001,2022-11-01_17h39.16.323,musicalMathTest,2022.2.4,59.99358066592561,
music\silence.wav,silent,silent,silent,1,90,A,multiply,5,4,20,25,28,26,0,6,6,4,0,1,1,72,,,,,,,,,,,,,,,,,,,,,,,,,,,,,,,630.5598104000092,630.5598104000092,630.5598104000092,630.5598104000092,630.5598104000092,0.005733199999667704,630.5598104000092,True,-0.08518518518518518,-0.39537037037037037,1,0,0,ansTwo,,,,,,,,,,,,,,,,,001,2022-11-01_17h39.16.323,musicalMathTest,2022.2.4,59.99358066592561,
music\silence.wav,silent,silent,silent,1,90,A,add,23,15,38,41,44,41,0,6,6,4,0,2,2,4,,,,,,,,,,,,,,,,,,,,,,,,,,,,,,,631.709854900022,631.709854900022,631.709854900022,631.709854900022,631.709854900022,0.006199099938385189,631.709854900022,True,0.11296296296296296,-0.4,1,0,0,ansThree,,,,,,,,,,,,,,,,,001,2022-11-01_17h39.16.323,musicalMathTest,2022.2.4,59.99358066592561,
music\silence.wav,silent,silent,silent,1,90,A,multiply,10,15,150,151,153,157,0,6,6,4,0,3,3,79,,,,,,,,,,,,,,,,,,,,,,,,,,,,,,,636.543033999973,636.543033999973,636.543033999973,636.543033999973,636.543033999973,0.00626559997908771,636.543033999973,True,0.08796296296296297,-0.3972222222222222,1,0,0,ansThree,,,,,,,,,,,,,,,,,001,2022-11-01_17h39.16.323,musicalMathTest,2022.2.4,59.99358066592561,
music\silence.wav,silent,silent,silent,1,90,A,add,37,15,52,59,56,60,0,6,6,4,0,4,4,11,,,,,,,,,,,,,,,,,,,,,,,,,,,,,,,638.8763953000307,638.8763953000307,638.8763953000307,638.8763953000307,638.8763953000307,0.0063674000557512045,638.8763953000307,True,-0.287962962962963,-0.3990740740740741,1,0,0,ansOne,,,,,,,,,,,,,,,,,001,2022-11-01_17h39.16.323,musicalMathTest,2022.2.4,59.99358066592561,
music\silence.wav,silent,silent,silent,1,90,A,multiply,15,5,75,78,81,78,0,6,6,4,0,5,5,99,,,,,,,,,,,,,,,,,,,,,,,,,,,,,,,647.442944600014,647.442944600014,647.442944600014,647.442944600014,647.442944600014,0.006038699997588992,647.442944600014,True,-0.2935185185185185,-0.3990740740740741,1,0,0,ansOne,,,,,,,,,,,,,,,,,001,2022-11-01_17h39.16.323,musicalMathTest,2022.2.4,59.99358066592561,
music\silence.wav,silent,silent,silent,1,90,A,subtract,41,39,2,8,4,7,0,6,6,4,0,6,6,39,,,,,,,,,,,,,,,,,,,,,,,,,,,,,,,654.6261922999984,654.6261922999984,654.6261922999984,654.6261922999984,654.6261922999984,0.006617199978791177,654.6261922999984,True,-0.29444444444444445,-0.3990740740740741,1,0,0,ansOne,,,,,,,,,,,,,,,,,001,2022-11-01_17h39.16.323,musicalMathTest,2022.2.4,59.99358066592561,
music\silence.wav,silent,silent,silent,1,90,A,subtract,39,23,16,19,18,20,0,6,6,4,0,7,7,55,,,,,,,,,,,,,,,,,,,,,,,,,,,,,,,657.0262233000249,657.0262233000249,657.0262233000249,657.0262233000249,657.0262233000249,0.006534299929626286,657.0262233000249,True,-0.08611111111111111,-0.4064814814814815,1,0,0,ansTwo,,,,,,,,,,,,,,,,,001,2022-11-01_17h39.16.323,musicalMathTest,2022.2.4,59.99358066592561,
music\silence.wav,silent,silent,silent,1,90,A,subtract,42,39,3,7,8,5,0,6,6,4,0,8,8,33,,,,,,,,,,,,,,,,,,,,,,,,,,,,,,,663.4095662999898,663.4095662999898,663.4095662999898,663.4095662999898,663.4095662999898,0.058180500054731965,663.4095662999898,True,-0.30277777777777776,-0.4009259259259259,1,0,0,ansOne,,,,,,,,,,,,,,,,,001,2022-11-01_17h39.16.323,musicalMathTest,2022.2.4,59.99358066592561,
music\silence.wav,silent,silent,silent,1,90,A,subtract,55,15,40,46,44,48,0,6,6,4,0,9,9,32,,,,,,,,,,,,,,,,,,,,,,,,,,,,,,,665.9927234000061,665.9927234000061,665.9927234000061,665.9927234000061,665.9927234000061,0.006260500056669116,665.9927234000061,True,-0.2851851851851852,-0.40185185185185185,1,0,0,ansOne,,,,,,,,,,,,,,,,,001,2022-11-01_17h39.16.323,musicalMathTest,2022.2.4,59.99358066592561,
music\silence.wav,silent,silent,silent,1,90,A,subtract,37,37,0,2,4,2,0,6,6,4,0,10,10,50,,,,,,,,,,,,,,,,,,,,,,,,,,,,,,,668.226054299972,668.226054299972,668.226054299972,668.226054299972,668.226054299972,0.006352300057187676,668.226054299972,True,-0.2953703703703704,-0.40185185185185185,1,0,0,ansOne,,,,,,,,,,,,,,,,,001,2022-11-01_17h39.16.323,musicalMathTest,2022.2.4,59.99358066592561,
music\silence.wav,silent,silent,silent,1,90,A,multiply,15,10,150,156,155,157,0,6,6,4,0,11,11,91,,,,,,,,,,,,,,,,,,,,,,,,,,,,,,,669.4426625999622,669.4426625999622,669.4426625999622,669.4426625999622,669.4426625999622,0.006408300017938018,669.4426625999622,True,-0.2953703703703704,-0.40185185185185185,1,0,0,ansOne,,,,,,,,,,,,,,,,,001,2022-11-01_17h39.16.323,musicalMathTest,2022.2.4,59.99358066592561,
music\silence.wav,silent,silent,silent,1,90,A,add,20,16,36,42,44,43,0,6,6,4,0,12,12,6,,,,,,,,,,,,,,,,,,,,,,,,,,,,,,,670.4926396999508,670.4926396999508,670.4926396999508,670.4926396999508,670.4926396999508,0.006009900011122227,670.4926396999508,False,-0.09351851851851851,-0.4064814814814815,1,0,0,ansTwo,,,,,,,,,,,,,,,,,001,2022-11-01_17h39.16.323,musicalMathTest,2022.2.4,59.99358066592561,
music\silence.wav,silent,silent,silent,1,90,A,multiply,4,2,8,13,11,13,0,6,6,4,0,13,13,116,,,,,,,,,,,,,,,,,,,,,,,,,,,,,,,673.8259600000456,673.8259600000456,673.8259600000456,673.8259600000456,673.8259600000456,0.006124999956227839,673.8259600000456,True,0.1,-0.39814814814814814,1,0,0,ansThree,,,,,,,,,,,,,,,,,001,2022-11-01_17h39.16.323,musicalMathTest,2022.2.4,59.99358066592561,
music\silence.wav,silent,silent,silent,1,90,A,add,55,39,94,96,102,106,0,6,6,4,0,14,14,5,,,,,,,,,,,,,,,,,,,,,,,,,,,,,,,675.5759267000249,675.5759267000249,675.5759267000249,675.5759267000249,675.5759267000249,0.006103800027631223,675.5759267000249,True,-0.1111111111111111,-0.39814814814814814,1,0,0,ansTwo,,,,,,,,,,,,,,,,,001,2022-11-01_17h39.16.323,musicalMathTest,2022.2.4,59.99358066592561,
music\silence.wav,silent,silent,silent,1,90,A,add,55,55,110,117,115,119,0,6,6,4,0,15,15,17,,,,,,,,,,,,,,,,,,,,,,,,,,,,,,,682.242487099953,682.242487099953,682.242487099953,682.242487099953,682.242487099953,0.006172499968670309,682.242487099953,True,-0.1111111111111111,-0.39814814814814814,1,0,0,ansTwo,,,,,,,,,,,,,,,,,001,2022-11-01_17h39.16.323,musicalMathTest,2022.2.4,59.99358066592561,
music\silence.wav,silent,silent,silent,1,90,A,add,55,15,70,77,71,72,0,6,6,4,0,16,16,1,,,,,,,,,,,,,,,,,,,,,,,,,,,,,,,684.4258969000075,684.4258969000075,684.4258969000075,684.4258969000075,684.4258969000075,0.006014700047671795,684.4258969000075,True,0.09722222222222222,-0.3990740740740741,1,0,0,ansThree,,,,,,,,,,,,,,,,,001,2022-11-01_17h39.16.323,musicalMathTest,2022.2.4,59.99358066592561,
music\silence.wav,silent,silent,silent,1,90,A,subtract,60,55,5,13,12,8,0,6,6,4,0,17,17,56,,,,,,,,,,,,,,,,,,,,,,,,,,,,,,,687.4591013999889,687.4591013999889,687.4591013999889,687.4591013999889,687.4591013999889,0.006053199991583824,687.4591013999889,True,-0.2962962962962963,-0.40555555555555556,1,0,0,ansOne,,,,,,,,,,,,,,,,,001,2022-11-01_17h39.16.323,musicalMathTest,2022.2.4,59.99358066592561,
music\silence.wav,silent,silent,silent,1,90,A,multiply,5,4,20,26,21,28,0,6,6,4,0,18,18,112,,,,,,,,,,,,,,,,,,,,,,,,,,,,,,,690.3923944999697,690.3923944999697,690.3923944999697,690.3923944999697,690.3923944999697,0.006659899954684079,690.3923944999697,True,-0.09259259259259259,-0.4009259259259259,1,0,0,ansTwo,,,,,,,,,,,,,,,,,001,2022-11-01_17h39.16.323,musicalMathTest,2022.2.4,59.99358066592561,
music\silence.wav,silent,silent,silent,1,90,A,multiply,10,4,40,48,45,46,0,6,6,4,0,19,19,80,,,,,,,,,,,,,,,,,,,,,,,,,,,,,,,692.2090572000016,692.2090572000016,692.2090572000016,692.2090572000016,692.2090572000016,0.0059090000577270985,692.2090572000016,True,0.10740740740740741,-0.3925925925925926,1,0,0,ansThree,,,,,,,,,,,,,,,,,001,2022-11-01_17h39.16.323,musicalMathTest,2022.2.4,59.99358066592561,
music\silence.wav,silent,silent,silent,1,90,A,subtract,58,55,3,6,10,7,0,6,6,4,0,20,20,60,,,,,,,,,,,,,,,,,,,,,,,,,,,,,,,693.9590528999688,693.9590528999688,693.9590528999688,693.9590528999688,693.9590528999688,0.006081499974243343,693.9590528999688,True,-0.09351851851851851,-0.39537037037037037,1,0,0,ansTwo,,,,,,,,,,,,,,,,,001,2022-11-01_17h39.16.323,musicalMathTest,2022.2.4,59.99358066592561,
music\silence.wav,silent,silent,silent,1,90,A,multiply,10,4,40,46,42,45,0,6,6,4,0,21,21,96,,,,,,,,,,,,,,,,,,,,,,,,,,,,,,,697.3089738000417,697.3089738000417,697.3089738000417,697.3089738000417,697.3089738000417,0.006871700054034591,697.3089738000417,True,-0.08703703703703704,-0.4,1,0,0,ansTwo,,,,,,,,,,,,,,,,,001,2022-11-01_17h39.16.323,musicalMathTest,2022.2.4,59.99358066592561,
music\silence.wav,silent,silent,silent,1,90,A,multiply,17,10,170,176,175,174,0,6,6,4,0,22,22,109,,,,,,,,,,,,,,,,,,,,,,,,,,,,,,,698.9589456999674,698.9589456999674,698.9589456999674,698.9589456999674,698.9589456999674,0.0067393999779596925,698.9589456999674,True,-0.08796296296296297,-0.4,1,0,0,ansTwo,,,,,,,,,,,,,,,,,001,2022-11-01_17h39.16.323,musicalMathTest,2022.2.4,59.99358066592561,
music\silence.wav,silent,silent,silent,1,90,A,subtract,40,37,3,6,7,9,0,6,6,4,0,23,23,58,,,,,,,,,,,,,,,,,,,,,,,,,,,,,,,700.6755979999434,700.6755979999434,700.6755979999434,700.6755979999434,700.6755979999434,0.00608349998947233,700.6755979999434,True,-0.09722222222222222,-0.4,1,0,0,ansTwo,,,,,,,,,,,,,,,,,001,2022-11-01_17h39.16.323,musicalMathTest,2022.2.4,59.99358066592561,
music\silence.wav,silent,silent,silent,1,90,A,multiply,5,15,75,77,85,77,0,6,6,4,0,24,24,71,,,,,,,,,,,,,,,,,,,,,,,,,,,,,,,702.9922372000292,702.9922372000292,702.9922372000292,702.9922372000292,702.9922372000292,0.006450800108723342,702.9922372000292,True,-0.2814814814814815,-0.4,1,0,0,ansOne,,,,,,,,,,,,,,,,,001,2022-11-01_17h39.16.323,musicalMathTest,2022.2.4,59.99358066592561,
music\silence.wav,silent,silent,silent,1,90,A,multiply,15,10,150,153,157,151,0,6,6,4,0,25,25,75,,,,,,,,,,,,,,,,,,,,,,,,,,,,,,,709.1255026999861,709.1255026999861,709.1255026999861,709.1255026999861,709.1255026999861,0.006001700065098703,709.1255026999861,True,-0.10833333333333334,-0.4,1,0,0,ansTwo,,,,,,,,,,,,,,,,,001,2022-11-01_17h39.16.323,musicalMathTest,2022.2.4,59.99358066592561,
music\silence.wav,silent,silent,silent,1,90,A,add,26,23,49,52,54,55,0,6,6,4,0,26,26,16,,,,,,,,,,,,,,,,,,,,,,,,,,,,,,,710.9588509999448,710.9588509999448,710.9588509999448,710.9588509999448,710.9588509999448,0.006369599956087768,710.9588509999448,True,-0.30185185185185187,-0.40185185185185185,1,0,0,ansOne,,,,,,,,,,,,,,,,,001,2022-11-01_17h39.16.323,musicalMathTest,2022.2.4,59.99358066592561,
music\silence.wav,silent,silent,silent,1,90,A,multiply,15,5,75,83,77,80,0,6,6,4,0,27,27,83,,,,,,,,,,,,,,,,,,,,,,,,,,,,,,,713.408795199939,713.408795199939,713.408795199939,713.408795199939,713.408795199939,0.006111500086262822,713.408795199939,True,0.10277777777777777,-0.3962962962962963,1,0,0,ansThree,,,,,,,,,,,,,,,,,001,2022-11-01_17h39.16.323,musicalMathTest,2022.2.4,59.99358066592561,
music\silence.wav,silent,silent,silent,1,90,A,subtract,23,15,8,13,11,12,0,6,6,4,0,28,28,35,,,,,,,,,,,,,,,,,,,,,,,,,,,,,,,716.4920713000465,716.4920713000465,716.4920713000465,716.4920713000465,716.4920713000465,0.006059999926947057,716.4920713000465,False,0.30833333333333335,-0.4083333333333333,1,0,0,ansFour,,,,,,,,,,,,,,,,,001,2022-11-01_17h39.16.323,musicalMathTest,2022.2.4,59.99358066592561,
music\calm\instrumentals\Rose Gold (90) (Instrumental) by Cabri x Sub Q Taneous.wav,rose gold,calm,instrumental,1,90,A,subtract,57,54,3,5,7,5,0,7,7,3,0,0,0,40,,,,,,,,,,,,,,,,,,,,,,,,726.7086327000288,0.004760200041346252,0.2824074074074074,-0.10833333333333334,1,0,0,727.5919033000246,727.5919033000246,727.5919033000246,727.5919033000246,727.5919033000246,0.0236316000809893,727.5919033000246,True,0.09907407407407408,-0.4074074074074074,1,0,0,ansThree,721.7086709999712,726.7086327000288,,,,,,,,,,,,,,,001,2022-11-01_17h39.16.323,musicalMathTest,2022.2.4,59.99358066592561,
music\calm\instrumentals\Rose Gold (90) (Instrumental) by Cabri x Sub Q Taneous.wav,rose gold,calm,instrumental,1,90,A,subtract,44,44,0,5,3,1,0,7,7,3,0,1,1,36,,,,,,,,,,,,,,,,,,,,,,,,,,,,,,,734.4251843999373,734.4251843999373,734.4251843999373,734.4251843999373,734.4251843999373,0.005720100016333163,734.4251843999373,True,-0.30277777777777776,-0.39814814814814814,1,0,0,ansOne,,,,,,,,,,,,,,,,,001,2022-11-01_17h39.16.323,musicalMathTest,2022.2.4,59.99358066592561,
music\calm\instrumentals\Rose Gold (90) (Instrumental) by Cabri x Sub Q Taneous.wav,rose gold,calm,instrumental,1,90,A,add,44,26,70,77,79,78,0,7,7,3,0,2,2,18,,,,,,,,,,,,,,,,,,,,,,,,,,,,,,,736.6418576999567,736.6418576999567,736.6418576999567,736.6418576999567,736.6418576999567,0.006441599922254682,736.6418576999567,True,0.11203703703703703,-0.40555555555555556,1,0,0,ansThree,,,,,,,,,,,,,,,,,001,2022-11-01_17h39.16.323,musicalMathTest,2022.2.4,59.99358066592561,
music\calm\instrumentals\Rose Gold (90) (Instrumental) by Cabri x Sub Q Taneous.wav,rose gold,calm,instrumental,1,90,A,multiply,14,10,140,146,141,143,0,7,7,3,0,3,3,74,,,,,,,,,,,,,,,,,,,,,,,,,,,,,,,745.3583741999464,745.3583741999464,745.3583741999464,745.3583741999464,745.3583741999464,0.00621240003965795,745.3583741999464,True,-0.3074074074074074,-0.39444444444444443,1,0,0,ansOne,,,,,,,,,,,,,,,,,001,2022-11-01_17h39.16.323,musicalMathTest,2022.2.4,59.99358066592561,
music\calm\instrumentals\Rose Gold (90) (Instrumental) by Cabri x Sub Q Taneous.wav,rose gold,calm,instrumental,1,90,A,multiply,5,14,70,77,74,75,0,7,7,3,0,4,4,110,,,,,,,,,,,,,,,,,,,,,,,,,,,,,,,747.0583506999537,747.0583506999537,747.0583506999537,747.0583506999537,747.0583506999537,0.006432299967855215,747.0583506999537,True,0.0962962962962963,-0.39351851851851855,1,0,0,ansThree,,,,,,,,,,,,,,,,,001,2022-11-01_17h39.16.323,musicalMathTest,2022.2.4,59.99358066592561,
music\calm\instrumentals\Rose Gold (90) (Instrumental) by Cabri x Sub Q Taneous.wav,rose gold,calm,instrumental,1,90,A,multiply,11,2,22,29,26,27,0,7,7,3,0,5,5,117,,,,,,,,,,,,,,,,,,,,,,,,,,,,,,,749.9083283999935,749.9083283999935,749.9083283999935,749.9083283999935,749.9083283999935,0.00607020000461489,749.9083283999935,True,-0.10462962962962963,-0.3907407407407407,1,0,0,ansTwo,,,,,,,,,,,,,,,,,001,2022-11-01_17h39.16.323,musicalMathTest,2022.2.4,59.99358066592561,
music\calm\instrumentals\Rose Gold (90) (Instrumental) by Cabri x Sub Q Taneous.wav,rose gold,calm,instrumental,1,90,A,add,63,58,121,128,124,123,0,7,7,3,0,6,6,7,,,,,,,,,,,,,,,,,,,,,,,,,,,,,,,752.9415783999721,752.9415783999721,752.9415783999721,752.9415783999721,752.9415783999721,0.006827899953350425,752.9415783999721,True,-0.09814814814814815,-0.4074074074074074,1,0,0,ansTwo,,,,,,,,,,,,,,,,,001,2022-11-01_17h39.16.323,musicalMathTest,2022.2.4,59.99358066592561,
music\calm\instrumentals\Rose Gold (90) (Instrumental) by Cabri x Sub Q Taneous.wav,rose gold,calm,instrumental,1,90,A,add,54,13,67,69,70,74,0,7,7,3,0,7,7,19,,,,,,,,,,,,,,,,,,,,,,,,,,,,,,,758.258212100016,758.258212100016,758.258212100016,758.258212100016,758.258212100016,0.006120900041423738,758.258212100016,True,-0.3037037037037037,-0.40185185185185185,1,0,0,ansOne,,,,,,,,,,,,,,,,,001,2022-11-01_17h39.16.323,musicalMathTest,2022.2.4,59.99358066592561,
music\calm\instrumentals\Rose Gold (90) (Instrumental) by Cabri x Sub Q Taneous.wav,rose gold,calm,instrumental,1,90,A,multiply,10,11,110,115,118,115,0,7,7,3,0,8,8,97,,,,,,,,,,,,,,,,,,,,,,,,,,,,,,,762.1415007000323,762.1415007000323,762.1415007000323,762.1415007000323,762.1415007000323,0.006517200032249093,762.1415007000323,True,0.09259259259259259,-0.4046296296296296,1,0,0,ansThree,,,,,,,,,,,,,,,,,001,2022-11-01_17h39.16.323,musicalMathTest,2022.2.4,59.99358066592561,
music\calm\instrumentals\Rose Gold (90) (Instrumental) by Cabri x Sub Q Taneous.wav,rose gold,calm,instrumental,1,90,A,multiply,11,5,55,58,56,62,0,7,7,3,0,9,9,101,,,,,,,,,,,,,,,,,,,,,,,,,,,,,,,763.8081706999801,763.8081706999801,763.8081706999801,763.8081706999801,763.8081706999801,0.005918200011365116,763.8081706999801,True,-0.30092592592592593,-0.39351851851851855,1,0,0,ansOne,,,,,,,,,,,,,,,,,001,2022-11-01_17h39.16.323,musicalMathTest,2022.2.4,59.99358066592561,
music\calm\instrumentals\Rose Gold (90) (Instrumental) by Cabri x Sub Q Taneous.wav,rose gold,calm,instrumental,1,90,A,multiply,10,6,60,66,63,64,0,7,7,3,0,10,10,95,,,,,,,,,,,,,,,,,,,,,,,,,,,,,,,765.5415022999514,765.5415022999514,765.5415022999514,765.5415022999514,765.5415022999514,0.006110500078648329,765.5415022999514,True,-0.1111111111111111,-0.3907407407407407,1,0,0,ansTwo,,,,,,,,,,,,,,,,,001,2022-11-01_17h39.16.323,musicalMathTest,2022.2.4,59.99358066592561,
music\calm\instrumentals\Rose Gold (90) (Instrumental) by Cabri x Sub Q Taneous.wav,rose gold,calm,instrumental,1,90,A,subtract,46,44,2,4,7,4,0,7,7,3,0,11,11,39,,,,,,,,,,,,,,,,,,,,,,,,,,,,,,,766.9414344000397,766.9414344000397,766.9414344000397,766.9414344000397,766.9414344000397,0.0056705999886617064,766.9414344000397,True,-0.30185185185185187,-0.3925925925925926,1,0,0,ansOne,,,,,,,,,,,,,,,,,001,2022-11-01_17h39.16.323,musicalMathTest,2022.2.4,59.99358066592561,
music\calm\instrumentals\Rose Gold (90) (Instrumental) by Cabri x Sub Q Taneous.wav,rose gold,calm,instrumental,1,90,A,add,46,44,90,95,100,91,0,7,7,3,0,12,12,8,,,,,,,,,,,,,,,,,,,,,,,,,,,,,,,769.5247476999648,769.5247476999648,769.5247476999648,769.5247476999648,769.5247476999648,0.0059695999370887876,769.5247476999648,False,0.12129629629629629,-0.3990740740740741,1,0,0,ansThree,,,,,,,,,,,,,,,,,001,2022-11-01_17h39.16.323,musicalMathTest,2022.2.4,59.99358066592561,
music\calm\instrumentals\Rose Gold (90) (Instrumental) by Cabri x Sub Q Taneous.wav,rose gold,calm,instrumental,1,90,A,multiply,19,5,95,105,103,101,0,7,7,3,0,13,13,84,,,,,,,,,,,,,,,,,,,,,,,,,,,,,,,772.5580040999921,772.5580040999921,772.5580040999921,772.5580040999921,772.5580040999921,0.006126999971456826,772.5580040999921,True,0.09722222222222222,-0.4009259259259259,1,0,0,ansThree,,,,,,,,,,,,,,,,,001,2022-11-01_17h39.16.323,musicalMathTest,2022.2.4,59.99358066592561,
music\calm\instrumentals\Rose Gold (90) (Instrumental) by Cabri x Sub Q Taneous.wav,rose gold,calm,instrumental,1,90,A,multiply,10,6,60,66,70,67,0,7,7,3,0,14,14,79,,,,,,,,,,,,,,,,,,,,,,,,,,,,,,,774.9913088999456,774.9913088999456,774.9913088999456,774.9913088999456,774.9913088999456,0.006526099983602762,774.9913088999456,True,0.1037037037037037,-0.40185185185185185,1,0,0,ansThree,,,,,,,,,,,,,,,,,001,2022-11-01_17h39.16.323,musicalMathTest,2022.2.4,59.99358066592561,
music\calm\instrumentals\Rose Gold (90) (Instrumental) by Cabri x Sub Q Taneous.wav,rose gold,calm,instrumental,1,90,A,multiply,10,11,110,114,116,120,0,7,7,3,0,15,15,65,,,,,,,,,,,,,,,,,,,,,,,,,,,,,,,776.7246750999475,776.7246750999475,776.7246750999475,776.7246750999475,776.7246750999475,0.005901099997572601,776.7246750999475,True,-0.1037037037037037,-0.3990740740740741,1,0,0,ansTwo,,,,,,,,,,,,,,,,,001,2022-11-01_17h39.16.323,musicalMathTest,2022.2.4,59.99358066592561,
music\calm\instrumentals\Rose Gold (90) (Instrumental) by Cabri x Sub Q Taneous.wav,rose gold,calm,instrumental,1,90,A,multiply,11,10,110,120,118,116,0,7,7,3,0,16,16,69,,,,,,,,,,,,,,,,,,,,,,,,,,,,,,,777.9912745000329,777.9912745000329,777.9912745000329,777.9912745000329,777.9912745000329,0.006810900056734681,777.9912745000329,True,-0.30092592592592593,-0.4027777777777778,1,0,0,ansOne,,,,,,,,,,,,,,,,,001,2022-11-01_17h39.16.323,musicalMathTest,2022.2.4,59.99358066592561,
music\calm\instrumentals\Rose Gold (90) (Instrumental) by Cabri x Sub Q Taneous.wav,rose gold,calm,instrumental,1,90,A,add,44,11,55,57,61,56,0,7,7,3,0,17,17,21,,,,,,,,,,,,,,,,,,,,,,,,,,,,,,,779.9413146999432,779.9413146999432,779.9413146999432,779.9413146999432,779.9413146999432,0.005992899998091161,779.9413146999432,True,-0.2916666666666667,-0.4046296296296296,1,0,0,ansOne,,,,,,,,,,,,,,,,,001,2022-11-01_17h39.16.323,musicalMathTest,2022.2.4,59.99358066592561,
music\calm\instrumentals\Rose Gold (90) (Instrumental) by Cabri x Sub Q Taneous.wav,rose gold,calm,instrumental,1,90,A,subtract,44,21,23,28,30,24,0,7,7,3,0,18,18,55,,,,,,,,,,,,,,,,,,,,,,,,,,,,,,,785.4911851000506,785.4911851000506,785.4911851000506,785.4911851000506,785.4911851000506,0.006273500039242208,785.4911851000506,True,0.10555555555555556,-0.39444444444444443,1,0,0,ansThree,,,,,,,,,,,,,,,,,001,2022-11-01_17h39.16.323,musicalMathTest,2022.2.4,59.99358066592561,
music\calm\instrumentals\Rose Gold (90) (Instrumental) by Cabri x Sub Q Taneous.wav,rose gold,calm,instrumental,1,90,A,add,62,58,120,122,124,127,0,7,7,3,0,19,19,13,,,,,,,,,,,,,,,,,,,,,,,,,,,,,,,790.8911075999495,790.8911075999495,790.8911075999495,790.8911075999495,790.8911075999495,0.005966400029137731,790.8911075999495,True,0.08611111111111111,-0.39351851851851855,1,0,0,ansThree,,,,,,,,,,,,,,,,,001,2022-11-01_17h39.16.323,musicalMathTest,2022.2.4,59.99358066592561,
music\calm\instrumentals\Rose Gold (90) (Instrumental) by Cabri x Sub Q Taneous.wav,rose gold,calm,instrumental,1,90,A,multiply,19,5,95,101,100,97,0,7,7,3,0,20,20,100,,,,,,,,,,,,,,,,,,,,,,,,,,,,,,,794.6244299999671,794.6244299999671,794.6244299999671,794.6244299999671,794.6244299999671,0.006047199945896864,794.6244299999671,True,-0.10185185185185185,-0.40555555555555556,1,0,0,ansTwo,,,,,,,,,,,,,,,,,001,2022-11-01_17h39.16.323,musicalMathTest,2022.2.4,59.99358066592561,
music\calm\instrumentals\Rose Gold (90) (Instrumental) by Cabri x Sub Q Taneous.wav,rose gold,calm,instrumental,1,90,A,subtract,58,26,32,38,39,43,0,7,7,3,0,21,21,57,,,,,,,,,,,,,,,,,,,,,,,,,,,,,,,801.1576946999412,801.1576946999412,801.1576946999412,801.1576946999412,801.1576946999412,0.005857200012542307,801.1576946999412,True,-0.29444444444444445,-0.3990740740740741,1,0,0,ansOne,,,,,,,,,,,,,,,,,001,2022-11-01_17h39.16.323,musicalMathTest,2022.2.4,59.99358066592561,
music\calm\instrumentals\Rose Gold (90) (Instrumental) by Cabri x Sub Q Taneous.wav,rose gold,calm,instrumental,1,90,A,add,54,53,107,112,115,110,0,7,7,3,0,22,22,14,,,,,,,,,,,,,,,,,,,,,,,,,,,,,,,813.2408476000419,813.2408476000419,813.2408476000419,813.2408476000419,813.2408476000419,0.006130299996584654,813.2408476000419,True,0.09814814814814815,-0.39814814814814814,1,0,0,ansThree,,,,,,,,,,,,,,,,,001,2022-11-01_17h39.16.323,musicalMathTest,2022.2.4,59.99358066592561,
music\calm\instrumentals\Rose Gold (90) (Instrumental) by Cabri x Sub Q Taneous.wav,rose gold,calm,instrumental,1,90,A,add,58,54,112,117,118,114,0,7,7,3,0,23,23,6,,,,,,,,,,,,,,,,,,,,,,,,,,,,,,,816.9574541000184,816.9574541000184,816.9574541000184,816.9574541000184,816.9574541000184,0.006341900094412267,816.9574541000184,True,-0.0824074074074074,-0.40185185185185185,1,0,0,ansTwo,,,,,,,,,,,,,,,,,001,2022-11-01_17h39.16.323,musicalMathTest,2022.2.4,59.99358066592561,
music\active\vocals\Like This (90) by MUNNYCAT.wav,like this,active,vocals,1,90,A,multiply,2,10,20,23,21,25,0,8,8,2,0,0,0,107,,,,,,,,,,,,,,,,,,,,,,,,831.4739616999868,0.004835100029595196,-0.11018518518518519,-0.2777777777777778,1,0,0,842.807137100026,842.807137100026,842.807137100026,842.807137100026,842.807137100026,0.01920749992132187,842.807137100026,True,-0.30277777777777776,-0.40370370370370373,1,0,0,ansOne,826.4739978000289,831.4739616999868,,,,,,,,,,,,,,,001,2022-11-01_17h39.16.323,musicalMathTest,2022.2.4,59.99358066592561,
