songfilename,SongName,Speed,Condition,fileblock,testdurationsec,songCondFile,CategoryType,NumOne,NumTwo,Correct,Incorrect1,Incorrect2,Incorrect3,musicTypeLoop.thisRepN,musicTypeLoop.thisTrialN,musicTypeLoop.thisN,musicTypeLoop.thisIndex,trialsMath.thisRepN,trialsMath.thisTrialN,trialsMath.thisN,trialsMath.thisIndex,partInfoImage.started,partinfomouse.started,partinfomouse.x,partinfomouse.y,partinfomouse.leftButton,partinfomouse.midButton,partinfomouse.rightButton,partInfoImage_2.started,partinfomouse_2.started,consentBox.started,partinfomouse_2.x,partinfomouse_2.y,partinfomouse_2.leftButton,partinfomouse_2.midButton,partinfomouse_2.rightButton,partinfomouse_2.clicked_name,partInfoImage_3.started,partinfomouse_3.started,partinfomouse_3.x,partinfomouse_3.y,partinfomouse_3.leftButton,partinfomouse_3.midButton,partinfomouse_3.rightButton,partInfoImage_4.started,partinfomouse_4.started,partinfomouse_4.x,partinfomouse_4.y,partinfomouse_4.leftButton,partinfomouse_4.midButton,partinfomouse_4.rightButton,question.started,ansOne.started,ansTwo.started,ansThree.started,ansFour.started,mouseclickResponse.started,debuginfo.started,correctClick,mouseclickResponse.x,mouseclickResponse.y,mouseclickResponse.leftButton,mouseclickResponse.midButton,mouseclickResponse.rightButton,mouseclickResponse.clicked_name,text.started,text.stopped,partInfoImage_5.started,partinfomouse_5.started,partinfomouse_5.x,partinfomouse_5.y,partinfomouse_5.leftButton,partinfomouse_5.midButton,partinfomouse_5.rightButton,partInfoImage_6.started,partinfomouse_6.started,partinfomouse_6.x,partinfomouse_6.y,partinfomouse_6.leftButton,partinfomouse_6.midButton,partinfomouse_6.rightButton,session,date,expName,psychopyVersion,frameRate
,,,,,,,,,,,,,,,,,,,,,,14.225835,2.80E-05,-0.126851852,0.147222222,1,0,0,,,,,,,,,,,,,,,,,,,,,,,,,,,,,,,,,,,,,,,,,,,,,,,,,,,,,,1,2022-11-01_20h54.34.424,musicalMathTest,2022.2.0,59.95502174
,,,,,,,,,,,,,,,,,,,,,,,,,,,,,15.8246897,1.51E-05,15.8246897,0.307407407,-0.438888889,1,0,0,consentBox,,,,,,,,,,,,,,,,,,,,,,,,,,,,,,,,,,,,,,,,,,,,,1,2022-11-01_20h54.34.424,musicalMathTest,2022.2.0,59.95502174
,,,,,,,,,,,,,,,,,,,,,,,,,,,,,,,,,,,,,,17.2247009,1.23E-05,-0.181481481,0.026851852,1,0,0,,,,,,,,,,,,,,,,,,,,,,,,,,,,,,,,,,,,,,1,2022-11-01_20h54.34.424,musicalMathTest,2022.2.0,59.95502174
music\calm\instrumentals\Rose Gold (90) (Instrumental) by Cabri x Sub Q Taneous.wav,rose gold,calm,instrumental,1,90,A,subtract,54,21,33,35,37,40,0,0,0,3,0,0,0,59,,,,,,,,,,,,,,,,,,,,,,,,18.3418081,0.041646,-0.042592593,0.02962963,1,0,0,19.8747044,19.8747044,19.8747044,19.8747044,19.8747044,0.0314183,19.8747044,TRUE,0.090740741,-0.398148148,1,0,0,ansThree,,,,,,,,,,,,,,,,,1,2022-11-01_20h54.34.424,musicalMathTest,2022.2.0,59.95502174
music\calm\instrumentals\Rose Gold (90) (Instrumental) by Cabri x Sub Q Taneous.wav,rose gold,calm,instrumental,1,90,A,multiply,14,10,140,146,141,143,0,0,0,3,0,1,1,74,,,,,,,,,,,,,,,,,,,,,,,,,,,,,,,22.3413767,22.3413767,22.3413767,22.3413767,22.3413767,0.0056523,22.3413767,TRUE,-0.291666667,-0.396296296,1,0,0,ansOne,,,,,,,,,,,,,,,,,1,2022-11-01_20h54.34.424,musicalMathTest,2022.2.0,59.95502174
music\calm\instrumentals\Rose Gold (90) (Instrumental) by Cabri x Sub Q Taneous.wav,rose gold,calm,instrumental,1,90,A,subtract,53,26,27,31,29,34,0,0,0,3,0,2,2,61,,,,,,,,,,,,,,,,,,,,,,,,,,,,,,,24.2580622,24.2580622,24.2580622,24.2580622,24.2580622,0.0046312,24.2580622,TRUE,-0.109259259,-0.400925926,1,0,0,ansTwo,,,,,,,,,,,,,,,,,1,2022-11-01_20h54.34.424,musicalMathTest,2022.2.0,59.95502174
music\calm\instrumentals\Rose Gold (90) (Instrumental) by Cabri x Sub Q Taneous.wav,rose gold,calm,instrumental,1,90,A,multiply,11,2,22,29,26,27,0,0,0,3,0,3,3,117,,,,,,,,,,,,,,,,,,,,,,,,,,,,,,,28.924781,28.924781,28.924781,28.924781,28.924781,0.0043137,28.924781,TRUE,0.093518519,-0.401851852,1,0,0,ansThree,,,,,,,,,,,,,,,,,1,2022-11-01_20h54.34.424,musicalMathTest,2022.2.0,59.95502174
music\calm\instrumentals\Rose Gold (90) (Instrumental) by Cabri x Sub Q Taneous.wav,rose gold,calm,instrumental,1,90,A,subtract,54,53,1,4,9,13,0,0,0,3,0,4,4,45,,,,,,,,,,,,,,,,,,,,,,,,,,,,,,,31.3748029,31.3748029,31.3748029,31.3748029,31.3748029,0.0040746,31.3748029,TRUE,-0.102777778,-0.394444444,1,0,0,ansTwo,,,,,,,,,,,,,,,,,1,2022-11-01_20h54.34.424,musicalMathTest,2022.2.0,59.95502174
music\calm\instrumentals\Rose Gold (90) (Instrumental) by Cabri x Sub Q Taneous.wav,rose gold,calm,instrumental,1,90,A,add,58,21,79,85,82,83,0,0,0,3,0,5,5,16,,,,,,,,,,,,,,,,,,,,,,,,,,,,,,,35.0081439,35.0081439,35.0081439,35.0081439,35.0081439,0.0055763,35.0081439,TRUE,0.09537037,-0.401851852,1,0,0,ansThree,,,,,,,,,,,,,,,,,1,2022-11-01_20h54.34.424,musicalMathTest,2022.2.0,59.95502174
music\calm\instrumentals\Rose Gold (90) (Instrumental) by Cabri x Sub Q Taneous.wav,rose gold,calm,instrumental,1,90,A,add,53,11,64,68,67,71,0,0,0,3,0,6,6,17,,,,,,,,,,,,,,,,,,,,,,,,,,,,,,,37.9915134,37.9915134,37.9915134,37.9915134,37.9915134,0.0041979,37.9915134,TRUE,0.101851852,-0.398148148,1,0,0,ansThree,,,,,,,,,,,,,,,,,1,2022-11-01_20h54.34.424,musicalMathTest,2022.2.0,59.95502174
music\calm\instrumentals\Rose Gold (90) (Instrumental) by Cabri x Sub Q Taneous.wav,rose gold,calm,instrumental,1,90,A,subtract,54,54,0,1,3,2,0,0,0,3,0,7,7,43,,,,,,,,,,,,,,,,,,,,,,,,,,,,,,,40.008183,40.008183,40.008183,40.008183,40.008183,0.00411,40.008183,TRUE,0.299074074,-0.394444444,1,0,0,ansFour,,,,,,,,,,,,,,,,,1,2022-11-01_20h54.34.424,musicalMathTest,2022.2.0,59.95502174
music\calm\instrumentals\Rose Gold (90) (Instrumental) by Cabri x Sub Q Taneous.wav,rose gold,calm,instrumental,1,90,A,add,56,53,109,116,112,116,0,0,0,3,0,8,8,11,,,,,,,,,,,,,,,,,,,,,,,,,,,,,,,42.4415131,42.4415131,42.4415131,42.4415131,42.4415131,0.0042693,42.4415131,TRUE,0.099074074,-0.403703704,1,0,0,ansThree,,,,,,,,,,,,,,,,,1,2022-11-01_20h54.34.424,musicalMathTest,2022.2.0,59.95502174
music\calm\instrumentals\Rose Gold (90) (Instrumental) by Cabri x Sub Q Taneous.wav,rose gold,calm,instrumental,1,90,A,subtract,54,11,43,33,48,52,0,0,0,3,0,9,9,56,,,,,,,,,,,,,,,,,,,,,,,,,,,,,,,49.1582535,49.1582535,49.1582535,49.1582535,49.1582535,0.0042697,49.1582535,TRUE,0.098148148,-0.399074074,1,0,0,ansThree,,,,,,,,,,,,,,,,,1,2022-11-01_20h54.34.424,musicalMathTest,2022.2.0,59.95502174
music\calm\instrumentals\Rose Gold (90) (Instrumental) by Cabri x Sub Q Taneous.wav,rose gold,calm,instrumental,1,90,A,multiply,14,10,140,147,141,150,0,0,0,3,0,10,10,106,,,,,,,,,,,,,,,,,,,,,,,,,,,,,,,52.3916132,52.3916132,52.3916132,52.3916132,52.3916132,0.0042609,52.3916132,TRUE,-0.287037037,-0.400925926,1,0,0,ansOne,,,,,,,,,,,,,,,,,1,2022-11-01_20h54.34.424,musicalMathTest,2022.2.0,59.95502174
music\calm\instrumentals\Rose Gold (90) (Instrumental) by Cabri x Sub Q Taneous.wav,rose gold,calm,instrumental,1,90,A,subtract,57,54,3,5,7,5,0,0,0,3,0,11,11,40,,,,,,,,,,,,,,,,,,,,,,,,,,,,,,,53.608311,53.608311,53.608311,53.608311,53.608311,0.0041141,53.608311,TRUE,0.096296296,-0.401851852,1,0,0,ansThree,,,,,,,,,,,,,,,,,1,2022-11-01_20h54.34.424,musicalMathTest,2022.2.0,59.95502174
music\calm\instrumentals\Rose Gold (90) (Instrumental) by Cabri x Sub Q Taneous.wav,rose gold,calm,instrumental,1,90,A,multiply,10,14,140,150,148,141,0,0,0,3,0,12,12,102,,,,,,,,,,,,,,,,,,,,,,,,,,,,,,,57.9083294,57.9083294,57.9083294,57.9083294,57.9083294,0.0041631,57.9083294,TRUE,0.096296296,-0.40462963,1,0,0,ansThree,,,,,,,,,,,,,,,,,1,2022-11-01_20h54.34.424,musicalMathTest,2022.2.0,59.95502174
music\calm\instrumentals\Rose Gold (90) (Instrumental) by Cabri x Sub Q Taneous.wav,rose gold,calm,instrumental,1,90,A,multiply,14,5,70,73,77,75,0,0,0,3,0,13,13,98,,,,,,,,,,,,,,,,,,,,,,,,,,,,,,,59.2250089,59.2250089,59.2250089,59.2250089,59.2250089,0.0042143,59.2250089,TRUE,-0.09537037,-0.402777778,1,0,0,ansTwo,,,,,,,,,,,,,,,,,1,2022-11-01_20h54.34.424,musicalMathTest,2022.2.0,59.95502174
music\calm\instrumentals\Rose Gold (90) (Instrumental) by Cabri x Sub Q Taneous.wav,rose gold,calm,instrumental,1,90,A,multiply,11,10,110,114,115,111,0,0,0,3,0,14,14,93,,,,,,,,,,,,,,,,,,,,,,,,,,,,,,,62.0250263,62.0250263,62.0250263,62.0250263,62.0250263,0.004165,62.0250263,TRUE,-0.309259259,-0.40462963,1,0,0,ansOne,,,,,,,,,,,,,,,,,1,2022-11-01_20h54.34.424,musicalMathTest,2022.2.0,59.95502174
music\calm\instrumentals\Rose Gold (90) (Instrumental) by Cabri x Sub Q Taneous.wav,rose gold,calm,instrumental,1,90,A,multiply,10,6,60,63,62,61,0,0,0,3,0,15,15,103,,,,,,,,,,,,,,,,,,,,,,,,,,,,,,,63.6083381,63.6083381,63.6083381,63.6083381,63.6083381,0.0044688,63.6083381,TRUE,0.108333333,-0.399074074,1,0,0,ansThree,,,,,,,,,,,,,,,,,1,2022-11-01_20h54.34.424,musicalMathTest,2022.2.0,59.95502174
music\calm\instrumentals\Rose Gold (90) (Instrumental) by Cabri x Sub Q Taneous.wav,rose gold,calm,instrumental,1,90,A,add,57,53,110,114,116,112,0,0,0,3,0,16,16,1,,,,,,,,,,,,,,,,,,,,,,,,,,,,,,,65.2750346,65.2750346,65.2750346,65.2750346,65.2750346,0.0040911,65.2750346,TRUE,0.10462963,-0.399074074,1,0,0,ansThree,,,,,,,,,,,,,,,,,1,2022-11-01_20h54.34.424,musicalMathTest,2022.2.0,59.95502174
music\calm\instrumentals\Rose Gold (90) (Instrumental) by Cabri x Sub Q Taneous.wav,rose gold,calm,instrumental,1,90,A,multiply,19,10,190,198,200,195,0,0,0,3,0,17,17,92,,,,,,,,,,,,,,,,,,,,,,,,,,,,,,,67.2916945,67.2916945,67.2916945,67.2916945,67.2916945,0.0043381,67.2916945,TRUE,-0.1,-0.392592593,1,0,0,ansTwo,,,,,,,,,,,,,,,,,1,2022-11-01_20h54.34.424,musicalMathTest,2022.2.0,59.95502174
music\calm\instrumentals\Rose Gold (90) (Instrumental) by Cabri x Sub Q Taneous.wav,rose gold,calm,instrumental,1,90,A,multiply,11,5,55,61,63,61,0,0,0,3,0,18,18,85,,,,,,,,,,,,,,,,,,,,,,,,,,,,,,,69.1250442,69.1250442,69.1250442,69.1250442,69.1250442,0.0040467,69.1250442,TRUE,-0.082407407,-0.391666667,1,0,0,ansTwo,,,,,,,,,,,,,,,,,1,2022-11-01_20h54.34.424,musicalMathTest,2022.2.0,59.95502174
music\calm\instrumentals\Rose Gold (90) (Instrumental) by Cabri x Sub Q Taneous.wav,rose gold,calm,instrumental,1,90,A,add,57,54,111,115,118,112,0,0,0,3,0,19,19,9,,,,,,,,,,,,,,,,,,,,,,,,,,,,,,,70.3750763,70.3750763,70.3750763,70.3750763,70.3750763,0.0042885,70.3750763,TRUE,-0.284259259,-0.401851852,1,0,0,ansOne,,,,,,,,,,,,,,,,,1,2022-11-01_20h54.34.424,musicalMathTest,2022.2.0,59.95502174
music\calm\instrumentals\Rose Gold (90) (Instrumental) by Cabri x Sub Q Taneous.wav,rose gold,calm,instrumental,1,90,A,multiply,6,10,60,68,63,67,0,0,0,3,0,20,20,91,,,,,,,,,,,,,,,,,,,,,,,,,,,,,,,72.7584419,72.7584419,72.7584419,72.7584419,72.7584419,0.0040978,72.7584419,TRUE,-0.301851852,-0.397222222,1,0,0,ansOne,,,,,,,,,,,,,,,,,1,2022-11-01_20h54.34.424,musicalMathTest,2022.2.0,59.95502174
music\calm\instrumentals\Rose Gold (90) (Instrumental) by Cabri x Sub Q Taneous.wav,rose gold,calm,instrumental,1,90,A,multiply,10,19,190,195,191,195,0,0,0,3,0,21,21,104,,,,,,,,,,,,,,,,,,,,,,,,,,,,,,,74.0251141,74.0251141,74.0251141,74.0251141,74.0251141,0.0043121,74.0251141,TRUE,-0.286111111,-0.40462963,1,0,0,ansOne,,,,,,,,,,,,,,,,,1,2022-11-01_20h54.34.424,musicalMathTest,2022.2.0,59.95502174
music\calm\instrumentals\Rose Gold (90) (Instrumental) by Cabri x Sub Q Taneous.wav,rose gold,calm,instrumental,1,90,A,subtract,49,44,5,6,13,11,0,0,0,3,0,22,22,33,,,,,,,,,,,,,,,,,,,,,,,,,,,,,,,75.4584119,75.4584119,75.4584119,75.4584119,75.4584119,0.0040851,75.4584119,TRUE,-0.294444444,-0.412962963,1,0,0,ansOne,,,,,,,,,,,,,,,,,1,2022-11-01_20h54.34.424,musicalMathTest,2022.2.0,59.95502174
music\calm\instrumentals\Rose Gold (90) (Instrumental) by Cabri x Sub Q Taneous.wav,rose gold,calm,instrumental,1,90,A,multiply,10,6,60,66,63,64,0,0,0,3,0,23,23,95,,,,,,,,,,,,,,,,,,,,,,,,,,,,,,,77.2584228,77.2584228,77.2584228,77.2584228,77.2584228,0.0042557,77.2584228,TRUE,-0.111111111,-0.401851852,1,0,0,ansTwo,,,,,,,,,,,,,,,,,1,2022-11-01_20h54.34.424,musicalMathTest,2022.2.0,59.95502174
music\calm\instrumentals\Rose Gold (90) (Instrumental) by Cabri x Sub Q Taneous.wav,rose gold,calm,instrumental,1,90,A,subtract,54,13,41,49,42,45,0,0,0,3,0,24,24,50,,,,,,,,,,,,,,,,,,,,,,,,,,,,,,,78.741779,78.741779,78.741779,78.741779,78.741779,0.0040695,78.741779,TRUE,-0.109259259,-0.4,1,0,0,ansTwo,,,,,,,,,,,,,,,,,1,2022-11-01_20h54.34.424,musicalMathTest,2022.2.0,59.95502174
music\calm\instrumentals\Rose Gold (90) (Instrumental) by Cabri x Sub Q Taneous.wav,rose gold,calm,instrumental,1,90,A,multiply,11,10,110,120,118,116,0,0,0,3,0,25,25,69,,,,,,,,,,,,,,,,,,,,,,,,,,,,,,,82.6418561,82.6418561,82.6418561,82.6418561,82.6418561,0.0043317,82.6418561,TRUE,-0.284259259,-0.398148148,1,0,0,ansOne,,,,,,,,,,,,,,,,,1,2022-11-01_20h54.34.424,musicalMathTest,2022.2.0,59.95502174
music\calm\instrumentals\Rose Gold (90) (Instrumental) by Cabri x Sub Q Taneous.wav,rose gold,calm,instrumental,1,90,A,subtract,58,11,47,50,49,37,0,0,0,3,0,26,26,60,,,,,,,,,,,,,,,,,,,,,,,,,,,,,,,83.9918055,83.9918055,83.9918055,83.9918055,83.9918055,0.0043699,83.9918055,FALSE,0.301851852,-0.406481481,1,0,0,ansFour,,,,,,,,,,,,,,,,,1,2022-11-01_20h54.34.424,musicalMathTest,2022.2.0,59.95502174
music\calm\instrumentals\Rose Gold (90) (Instrumental) by Cabri x Sub Q Taneous.wav,rose gold,calm,instrumental,1,90,A,subtract,46,44,2,4,7,4,0,0,0,3,0,27,27,39,,,,,,,,,,,,,,,,,,,,,,,,,,,,,,,86.6751797,86.6751797,86.6751797,86.6751797,86.6751797,0.0040977,86.6751797,TRUE,-0.294444444,-0.39537037,1,0,0,ansOne,,,,,,,,,,,,,,,,,1,2022-11-01_20h54.34.424,musicalMathTest,2022.2.0,59.95502174
music\calm\instrumentals\Rose Gold (90) (Instrumental) by Cabri x Sub Q Taneous.wav,rose gold,calm,instrumental,1,90,A,subtract,56,54,2,8,5,9,0,0,0,3,0,28,28,34,,,,,,,,,,,,,,,,,,,,,,,,,,,,,,,90.575214,90.575214,90.575214,90.575214,90.575214,0.0039485,90.575214,TRUE,-0.102777778,-0.389814815,1,0,0,ansTwo,,,,,,,,,,,,,,,,,1,2022-11-01_20h54.34.424,musicalMathTest,2022.2.0,59.95502174
music\calm\instrumentals\Rose Gold (90) (Instrumental) by Cabri x Sub Q Taneous.wav,rose gold,calm,instrumental,1,90,A,subtract,44,44,0,5,3,1,0,0,0,3,0,29,29,36,,,,,,,,,,,,,,,,,,,,,,,,,,,,,,,92.2918707,92.2918707,92.2918707,92.2918707,92.2918707,0.0041742,92.2918707,TRUE,-0.094444444,-0.39537037,1,0,0,ansTwo,,,,,,,,,,,,,,,,,1,2022-11-01_20h54.34.424,musicalMathTest,2022.2.0,59.95502174
music\calm\instrumentals\Rose Gold (90) (Instrumental) by Cabri x Sub Q Taneous.wav,rose gold,calm,instrumental,1,90,A,multiply,19,10,190,200,202,194,0,0,0,3,0,30,30,76,,,,,,,,,,,,,,,,,,,,,,,,,,,,,,,93.4752179,93.4752179,93.4752179,93.4752179,93.4752179,0.0045884,93.4752179,TRUE,-0.107407407,-0.398148148,1,0,0,ansTwo,,,,,,,,,,,,,,,,,1,2022-11-01_20h54.34.424,musicalMathTest,2022.2.0,59.95502174
music\calm\instrumentals\Rose Gold (90) (Instrumental) by Cabri x Sub Q Taneous.wav,rose gold,calm,instrumental,1,90,A,add,54,13,67,69,70,74,0,0,0,3,0,31,31,19,,,,,,,,,,,,,,,,,,,,,,,,,,,,,,,94.5252072,94.5252072,94.5252072,94.5252072,94.5252072,0.0042738,94.5252072,TRUE,-0.115740741,-0.398148148,1,0,0,ansTwo,,,,,,,,,,,,,,,,,1,2022-11-01_20h54.34.424,musicalMathTest,2022.2.0,59.95502174
music\calm\instrumentals\Rose Gold (90) (Instrumental) by Cabri x Sub Q Taneous.wav,rose gold,calm,instrumental,1,90,A,add,62,58,120,122,124,127,0,0,0,3,0,32,32,13,,,,,,,,,,,,,,,,,,,,,,,,,,,,,,,97.2419192,97.2419192,97.2419192,97.2419192,97.2419192,0.00433,97.2419192,TRUE,-0.080555556,-0.402777778,1,0,0,ansTwo,,,,,,,,,,,,,,,,,1,2022-11-01_20h54.34.424,musicalMathTest,2022.2.0,59.95502174
music\calm\instrumentals\Rose Gold (90) (Instrumental) by Cabri x Sub Q Taneous.wav,rose gold,calm,instrumental,1,90,A,add,53,21,74,77,75,77,0,0,0,3,0,33,33,20,,,,,,,,,,,,,,,,,,,,,,,,,,,,,,,100.3085799,100.3085799,100.3085799,100.3085799,100.3085799,0.0042441,100.3085799,TRUE,-0.29537037,-0.393518519,1,0,0,ansOne,,,,,,,,,,,,,,,,,1,2022-11-01_20h54.34.424,musicalMathTest,2022.2.0,59.95502174
music\calm\instrumentals\Rose Gold (90) (Instrumental) by Cabri x Sub Q Taneous.wav,rose gold,calm,instrumental,1,90,A,multiply,10,14,140,144,142,146,0,0,0,3,0,34,34,78,,,,,,,,,,,,,,,,,,,,,,,,,,,,,,,103.0085389,103.0085389,103.0085389,103.0085389,103.0085389,0.0041899,103.0085389,TRUE,0.103703704,-0.400925926,1,0,0,ansThree,,,,,,,,,,,,,,,,,1,2022-11-01_20h54.34.424,musicalMathTest,2022.2.0,59.95502174
music\calm\instrumentals\Rose Gold (90) (Instrumental) by Cabri x Sub Q Taneous.wav,rose gold,calm,instrumental,1,90,A,multiply,19,5,95,105,103,101,0,0,0,3,0,35,35,84,,,,,,,,,,,,,,,,,,,,,,,,,,,,,,,104.8086262,104.8086262,104.8086262,104.8086262,104.8086262,0.0041979,104.8086262,TRUE,0.099074074,-0.394444444,1,0,0,ansThree,,,,,,,,,,,,,,,,,1,2022-11-01_20h54.34.424,musicalMathTest,2022.2.0,59.95502174
music\calm\vocals\Brand New Feelings (90) by Land of Legs.wav,brand new feelings,calm,vocals,1,90,A,add,55,16,71,74,76,74,0,1,1,1,0,0,0,9,,,,,,,,,,,,,,,,,,,,,,,,116.9753667,0.003303,0.025925926,-0.12962963,1,0,0,123.6754103,123.6754103,123.6754103,123.6754103,123.6754103,0.0183165,123.6754103,TRUE,0.084259259,-0.399074074,1,0,0,ansThree,111.9753448,116.9753667,,,,,,,,,,,,,,,1,2022-11-01_20h54.34.424,musicalMathTest,2022.2.0,59.95502174
music\calm\vocals\Brand New Feelings (90) by Land of Legs.wav,brand new feelings,calm,vocals,1,90,A,add,39,10,49,52,50,53,0,1,1,1,0,1,1,18,,,,,,,,,,,,,,,,,,,,,,,,,,,,,,,125.9087556,125.9087556,125.9087556,125.9087556,125.9087556,0.004223,125.9087556,TRUE,-0.301851852,-0.388888889,1,0,0,ansOne,,,,,,,,,,,,,,,,,1,2022-11-01_20h54.34.424,musicalMathTest,2022.2.0,59.95502174
music\calm\vocals\Brand New Feelings (90) by Land of Legs.wav,brand new feelings,calm,vocals,1,90,A,subtract,27,23,4,6,12,6,0,1,1,1,0,2,2,59,,,,,,,,,,,,,,,,,,,,,,,,,,,,,,,129.4587976,129.4587976,129.4587976,129.4587976,129.4587976,0.0043239,129.4587976,TRUE,0.101851852,-0.402777778,1,0,0,ansThree,,,,,,,,,,,,,,,,,1,2022-11-01_20h54.34.424,musicalMathTest,2022.2.0,59.95502174
music\calm\vocals\Brand New Feelings (90) by Land of Legs.wav,brand new feelings,calm,vocals,1,90,A,multiply,17,10,170,176,175,174,0,1,1,1,0,3,3,109,,,,,,,,,,,,,,,,,,,,,,,,,,,,,,,133.2754861,133.2754861,133.2754861,133.2754861,133.2754861,0.0041151,133.2754861,TRUE,0.117592593,-0.40462963,1,0,0,ansThree,,,,,,,,,,,,,,,,,1,2022-11-01_20h54.34.424,musicalMathTest,2022.2.0,59.95502174
music\calm\vocals\Brand New Feelings (90) by Land of Legs.wav,brand new feelings,calm,vocals,1,90,A,subtract,16,10,6,7,9,12,0,1,1,1,0,4,4,53,,,,,,,,,,,,,,,,,,,,,,,,,,,,,,,134.7588306,134.7588306,134.7588306,134.7588306,134.7588306,0.0044539,134.7588306,TRUE,0.098148148,-0.401851852,1,0,0,ansThree,,,,,,,,,,,,,,,,,1,2022-11-01_20h54.34.424,musicalMathTest,2022.2.0,59.95502174
music\calm\vocals\Brand New Feelings (90) by Land of Legs.wav,brand new feelings,calm,vocals,1,90,A,multiply,10,3,30,34,38,31,0,1,1,1,0,5,5,78,,,,,,,,,,,,,,,,,,,,,,,,,,,,,,,138.0921922,138.0921922,138.0921922,138.0921922,138.0921922,0.0041769,138.0921922,TRUE,0.098148148,-0.401851852,1,0,0,ansThree,,,,,,,,,,,,,,,,,1,2022-11-01_20h54.34.424,musicalMathTest,2022.2.0,59.95502174
music\calm\vocals\Brand New Feelings (90) by Land of Legs.wav,brand new feelings,calm,vocals,1,90,A,multiply,15,10,150,153,155,159,0,1,1,1,0,6,6,67,,,,,,,,,,,,,,,,,,,,,,,,,,,,,,,139.9255431,139.9255431,139.9255431,139.9255431,139.9255431,0.004294,139.9255431,TRUE,0.102777778,-0.403703704,1,0,0,ansThree,,,,,,,,,,,,,,,,,1,2022-11-01_20h54.34.424,musicalMathTest,2022.2.0,59.95502174
music\calm\vocals\Brand New Feelings (90) by Land of Legs.wav,brand new feelings,calm,vocals,1,90,A,multiply,5,15,75,76,78,77,0,1,1,1,0,7,7,111,,,,,,,,,,,,,,,,,,,,,,,,,,,,,,,141.3255884,141.3255884,141.3255884,141.3255884,141.3255884,0.0041615,141.3255884,TRUE,-0.317592593,-0.407407407,1,0,0,ansOne,,,,,,,,,,,,,,,,,1,2022-11-01_20h54.34.424,musicalMathTest,2022.2.0,59.95502174
music\calm\vocals\Brand New Feelings (90) by Land of Legs.wav,brand new feelings,calm,vocals,1,90,A,multiply,10,17,170,171,178,176,0,1,1,1,0,8,8,65,,,,,,,,,,,,,,,,,,,,,,,,,,,,,,,143.708896,143.708896,143.708896,143.708896,143.708896,0.0043641,143.708896,TRUE,-0.299074074,-0.403703704,1,0,0,ansOne,,,,,,,,,,,,,,,,,1,2022-11-01_20h54.34.424,musicalMathTest,2022.2.0,59.95502174
music\calm\vocals\Brand New Feelings (90) by Land of Legs.wav,brand new feelings,calm,vocals,1,90,A,multiply,17,5,85,86,93,88,0,1,1,1,0,9,9,101,,,,,,,,,,,,,,,,,,,,,,,,,,,,,,,145.0755234,145.0755234,145.0755234,145.0755234,145.0755234,0.0040939,145.0755234,TRUE,-0.301851852,-0.405555556,1,0,0,ansOne,,,,,,,,,,,,,,,,,1,2022-11-01_20h54.34.424,musicalMathTest,2022.2.0,59.95502174
music\calm\vocals\Brand New Feelings (90) by Land of Legs.wav,brand new feelings,calm,vocals,1,90,A,subtract,42,37,5,12,11,9,0,1,1,1,0,10,10,54,,,,,,,,,,,,,,,,,,,,,,,,,,,,,,,147.9922897,147.9922897,147.9922897,147.9922897,147.9922897,0.0042098,147.9922897,TRUE,0.10462963,-0.39537037,1,0,0,ansThree,,,,,,,,,,,,,,,,,1,2022-11-01_20h54.34.424,musicalMathTest,2022.2.0,59.95502174
music\calm\vocals\Brand New Feelings (90) by Land of Legs.wav,brand new feelings,calm,vocals,1,90,A,add,40,39,79,85,82,84,0,1,1,1,0,11,11,15,,,,,,,,,,,,,,,,,,,,,,,,,,,,,,,151.6923017,151.6923017,151.6923017,151.6923017,151.6923017,0.0042503,151.6923017,TRUE,-0.099074074,-0.401851852,1,0,0,ansTwo,,,,,,,,,,,,,,,,,1,2022-11-01_20h54.34.424,musicalMathTest,2022.2.0,59.95502174
music\calm\vocals\Brand New Feelings (90) by Land of Legs.wav,brand new feelings,calm,vocals,1,90,A,multiply,5,15,75,77,85,77,0,1,1,1,0,12,12,71,,,,,,,,,,,,,,,,,,,,,,,,,,,,,,,154.2089503,154.2089503,154.2089503,154.2089503,154.2089503,0.0042277,154.2089503,TRUE,-0.312037037,-0.393518519,1,0,0,ansOne,,,,,,,,,,,,,,,,,1,2022-11-01_20h54.34.424,musicalMathTest,2022.2.0,59.95502174
music\calm\vocals\Brand New Feelings (90) by Land of Legs.wav,brand new feelings,calm,vocals,1,90,A,subtract,58,55,3,6,10,7,0,1,1,1,0,13,13,60,,,,,,,,,,,,,,,,,,,,,,,,,,,,,,,156.709004,156.709004,156.709004,156.709004,156.709004,0.0040224,156.709004,TRUE,0.096296296,-0.399074074,1,0,0,ansThree,,,,,,,,,,,,,,,,,1,2022-11-01_20h54.34.424,musicalMathTest,2022.2.0,59.95502174
music\calm\vocals\Brand New Feelings (90) by Land of Legs.wav,brand new feelings,calm,vocals,1,90,A,multiply,10,17,170,180,177,171,0,1,1,1,0,14,14,81,,,,,,,,,,,,,,,,,,,,,,,,,,,,,,,158.3923269,158.3923269,158.3923269,158.3923269,158.3923269,0.0042294,158.3923269,TRUE,0.092592593,-0.40462963,1,0,0,ansThree,,,,,,,,,,,,,,,,,1,2022-11-01_20h54.34.424,musicalMathTest,2022.2.0,59.95502174
music\calm\vocals\Brand New Feelings (90) by Land of Legs.wav,brand new feelings,calm,vocals,1,90,A,subtract,42,39,3,7,8,5,0,1,1,1,0,15,15,33,,,,,,,,,,,,,,,,,,,,,,,,,,,,,,,159.7590254,159.7590254,159.7590254,159.7590254,159.7590254,0.0039244,159.7590254,TRUE,0.102777778,-0.412037037,1,0,0,ansThree,,,,,,,,,,,,,,,,,1,2022-11-01_20h54.34.424,musicalMathTest,2022.2.0,59.95502174
music\calm\vocals\Brand New Feelings (90) by Land of Legs.wav,brand new feelings,calm,vocals,1,90,A,multiply,10,15,150,154,156,154,0,1,1,1,0,16,16,103,,,,,,,,,,,,,,,,,,,,,,,,,,,,,,,163.9257211,163.9257211,163.9257211,163.9257211,163.9257211,0.0042585,163.9257211,TRUE,-0.3,-0.396296296,1,0,0,ansOne,,,,,,,,,,,,,,,,,1,2022-11-01_20h54.34.424,musicalMathTest,2022.2.0,59.95502174
music\calm\vocals\Brand New Feelings (90) by Land of Legs.wav,brand new feelings,calm,vocals,1,90,A,multiply,10,15,150,151,153,157,0,1,1,1,0,17,17,79,,,,,,,,,,,,,,,,,,,,,,,,,,,,,,,165.559059,165.559059,165.559059,165.559059,165.559059,0.0031744,165.559059,TRUE,0.113888889,-0.396296296,1,0,0,ansThree,,,,,,,,,,,,,,,,,1,2022-11-01_20h54.34.424,musicalMathTest,2022.2.0,59.95502174
music\calm\vocals\Brand New Feelings (90) by Land of Legs.wav,brand new feelings,calm,vocals,1,90,A,subtract,55,15,40,46,44,48,0,1,1,1,0,18,18,32,,,,,,,,,,,,,,,,,,,,,,,,,,,,,,,167.5257504,167.5257504,167.5257504,167.5257504,167.5257504,0.0041605,167.5257504,TRUE,0.106481481,-0.4,1,0,0,ansThree,,,,,,,,,,,,,,,,,1,2022-11-01_20h54.34.424,musicalMathTest,2022.2.0,59.95502174
music\calm\vocals\Brand New Feelings (90) by Land of Legs.wav,brand new feelings,calm,vocals,1,90,A,multiply,15,2,30,31,36,40,0,1,1,1,0,19,19,115,,,,,,,,,,,,,,,,,,,,,,,,,,,,,,,170.9424465,170.9424465,170.9424465,170.9424465,170.9424465,0.0042633,170.9424465,TRUE,-0.113888889,-0.4,1,0,0,ansTwo,,,,,,,,,,,,,,,,,1,2022-11-01_20h54.34.424,musicalMathTest,2022.2.0,59.95502174
music\calm\vocals\Brand New Feelings (90) by Land of Legs.wav,brand new feelings,calm,vocals,1,90,A,add,55,15,70,77,71,72,0,1,1,1,0,20,20,1,,,,,,,,,,,,,,,,,,,,,,,,,,,,,,,172.7424552,172.7424552,172.7424552,172.7424552,172.7424552,0.0043394,172.7424552,TRUE,-0.089814815,-0.407407407,1,0,0,ansTwo,,,,,,,,,,,,,,,,,1,2022-11-01_20h54.34.424,musicalMathTest,2022.2.0,59.95502174
music\calm\vocals\Brand New Feelings (90) by Land of Legs.wav,brand new feelings,calm,vocals,1,90,A,add,42,37,79,81,89,82,0,1,1,1,0,21,21,23,,,,,,,,,,,,,,,,,,,,,,,,,,,,,,,175.2924355,175.2924355,175.2924355,175.2924355,175.2924355,0.004214,175.2924355,TRUE,-0.09537037,-0.405555556,1,0,0,ansTwo,,,,,,,,,,,,,,,,,1,2022-11-01_20h54.34.424,musicalMathTest,2022.2.0,59.95502174
music\calm\vocals\Brand New Feelings (90) by Land of Legs.wav,brand new feelings,calm,vocals,1,90,A,subtract,26,23,3,6,7,6,0,1,1,1,0,22,22,47,,,,,,,,,,,,,,,,,,,,,,,,,,,,,,,179.9091374,179.9091374,179.9091374,179.9091374,179.9091374,0.0039182,179.9091374,TRUE,-0.293518519,-0.398148148,1,0,0,ansOne,,,,,,,,,,,,,,,,,1,2022-11-01_20h54.34.424,musicalMathTest,2022.2.0,59.95502174
music\calm\vocals\Brand New Feelings (90) by Land of Legs.wav,brand new feelings,calm,vocals,1,90,A,subtract,40,39,1,6,3,9,0,1,1,1,0,23,23,46,,,,,,,,,,,,,,,,,,,,,,,,,,,,,,,181.8758185,181.8758185,181.8758185,181.8758185,181.8758185,0.0041225,181.8758185,TRUE,0.099074074,-0.390740741,1,0,0,ansThree,,,,,,,,,,,,,,,,,1,2022-11-01_20h54.34.424,musicalMathTest,2022.2.0,59.95502174
music\calm\vocals\Brand New Feelings (90) by Land of Legs.wav,brand new feelings,calm,vocals,1,90,A,add,23,16,39,47,43,41,0,1,1,1,0,24,24,12,,,,,,,,,,,,,,,,,,,,,,,,,,,,,,,183.6925428,183.6925428,183.6925428,183.6925428,183.6925428,0.0040656,183.6925428,TRUE,-0.099074074,-0.401851852,1,0,0,ansTwo,,,,,,,,,,,,,,,,,1,2022-11-01_20h54.34.424,musicalMathTest,2022.2.0,59.95502174
music\calm\vocals\Brand New Feelings (90) by Land of Legs.wav,brand new feelings,calm,vocals,1,90,A,multiply,17,5,85,86,89,93,0,1,1,1,0,25,25,85,,,,,,,,,,,,,,,,,,,,,,,,,,,,,,,186.842539,186.842539,186.842539,186.842539,186.842539,0.004254,186.842539,TRUE,-0.097222222,-0.405555556,1,0,0,ansTwo,,,,,,,,,,,,,,,,,1,2022-11-01_20h54.34.424,musicalMathTest,2022.2.0,59.95502174
music\calm\vocals\Brand New Feelings (90) by Land of Legs.wav,brand new feelings,calm,vocals,1,90,A,multiply,5,17,85,92,89,92,0,1,1,1,0,26,26,73,,,,,,,,,,,,,,,,,,,,,,,,,,,,,,,189.5592075,189.5592075,189.5592075,189.5592075,189.5592075,0.0041386,189.5592075,TRUE,-0.092592593,-0.409259259,1,0,0,ansTwo,,,,,,,,,,,,,,,,,1,2022-11-01_20h54.34.424,musicalMathTest,2022.2.0,59.95502174
music\calm\vocals\Brand New Feelings (90) by Land of Legs.wav,brand new feelings,calm,vocals,1,90,A,subtract,37,37,0,2,4,2,0,1,1,1,0,27,27,50,,,,,,,,,,,,,,,,,,,,,,,,,,,,,,,191.7258989,191.7258989,191.7258989,191.7258989,191.7258989,0.0043221,191.7258989,TRUE,0.100925926,-0.390740741,1,0,0,ansThree,,,,,,,,,,,,,,,,,1,2022-11-01_20h54.34.424,musicalMathTest,2022.2.0,59.95502174
music\calm\vocals\Brand New Feelings (90) by Land of Legs.wav,brand new feelings,calm,vocals,1,90,A,multiply,4,10,40,47,43,44,0,1,1,1,0,28,28,76,,,,,,,,,,,,,,,,,,,,,,,,,,,,,,,192.7759546,192.7759546,192.7759546,192.7759546,192.7759546,0.0041966,192.7759546,TRUE,-0.301851852,-0.405555556,1,0,0,ansOne,,,,,,,,,,,,,,,,,1,2022-11-01_20h54.34.424,musicalMathTest,2022.2.0,59.95502174
music\calm\vocals\Brand New Feelings (90) by Land of Legs.wav,brand new feelings,calm,vocals,1,90,A,add,37,15,52,59,56,60,0,1,1,1,0,29,29,11,,,,,,,,,,,,,,,,,,,,,,,,,,,,,,,194.1925067,194.1925067,194.1925067,194.1925067,194.1925067,0.0043503,194.1925067,TRUE,-0.300925926,-0.4,1,0,0,ansOne,,,,,,,,,,,,,,,,,1,2022-11-01_20h54.34.424,musicalMathTest,2022.2.0,59.95502174
music\calm\vocals\Brand New Feelings (90) by Land of Legs.wav,brand new feelings,calm,vocals,1,90,A,multiply,5,4,20,26,21,28,0,1,1,1,0,30,30,112,,,,,,,,,,,,,,,,,,,,,,,,,,,,,,,197.2092553,197.2092553,197.2092553,197.2092553,197.2092553,0.0040505,197.2092553,TRUE,-0.09537037,-0.399074074,1,0,0,ansTwo,,,,,,,,,,,,,,,,,1,2022-11-01_20h54.34.424,musicalMathTest,2022.2.0,59.95502174
music\calm\vocals\Brand New Feelings (90) by Land of Legs.wav,brand new feelings,calm,vocals,1,90,A,multiply,10,4,40,48,45,46,0,1,1,1,0,31,31,80,,,,,,,,,,,,,,,,,,,,,,,,,,,,,,,198.5259289,198.5259289,198.5259289,198.5259289,198.5259289,0.0042111,198.5259289,TRUE,-0.089814815,-0.393518519,1,0,0,ansTwo,,,,,,,,,,,,,,,,,1,2022-11-01_20h54.34.424,musicalMathTest,2022.2.0,59.95502174
music\calm\vocals\Brand New Feelings (90) by Land of Legs.wav,brand new feelings,calm,vocals,1,90,A,subtract,25,23,2,9,5,8,0,1,1,1,0,32,32,51,,,,,,,,,,,,,,,,,,,,,,,,,,,,,,,199.4425829,199.4425829,199.4425829,199.4425829,199.4425829,0.0039078,199.4425829,TRUE,0.10462963,-0.396296296,1,0,0,ansThree,,,,,,,,,,,,,,,,,1,2022-11-01_20h54.34.424,musicalMathTest,2022.2.0,59.95502174
music\calm\vocals\Brand New Feelings (90) by Land of Legs.wav,brand new feelings,calm,vocals,1,90,A,multiply,15,10,150,153,157,151,0,1,1,1,0,33,33,75,,,,,,,,,,,,,,,,,,,,,,,,,,,,,,,201.1592947,201.1592947,201.1592947,201.1592947,201.1592947,0.0042684,201.1592947,TRUE,-0.292592593,-0.411111111,1,0,0,ansOne,,,,,,,,,,,,,,,,,1,2022-11-01_20h54.34.424,musicalMathTest,2022.2.0,59.95502174
music\calm\vocals\Brand New Feelings (90) by Land of Legs.wav,brand new feelings,calm,vocals,1,90,A,add,40,37,77,83,85,79,0,1,1,1,0,34,34,27,,,,,,,,,,,,,,,,,,,,,,,,,,,,,,,202.5593424,202.5593424,202.5593424,202.5593424,202.5593424,0.0041302,202.5593424,TRUE,0.099074074,-0.407407407,1,0,0,ansThree,,,,,,,,,,,,,,,,,1,2022-11-01_20h54.34.424,musicalMathTest,2022.2.0,59.95502174
music\calm\vocals\Brand New Feelings (90) by Land of Legs.wav,brand new feelings,calm,vocals,1,90,A,multiply,17,10,170,175,171,174,0,1,1,1,0,35,35,77,,,,,,,,,,,,,,,,,,,,,,,,,,,,,,,204.9093307,204.9093307,204.9093307,204.9093307,204.9093307,0.004299,204.9093307,TRUE,-0.094444444,-0.393518519,1,0,0,ansTwo,,,,,,,,,,,,,,,,,1,2022-11-01_20h54.34.424,musicalMathTest,2022.2.0,59.95502174
music\calm\vocals\Brand New Feelings (90) by Land of Legs.wav,brand new feelings,calm,vocals,1,90,A,multiply,17,10,170,176,180,172,0,1,1,1,0,36,36,69,,,,,,,,,,,,,,,,,,,,,,,,,,,,,,,206.0593691,206.0593691,206.0593691,206.0593691,206.0593691,0.0031041,206.0593691,TRUE,-0.082407407,-0.406481481,1,0,0,ansTwo,,,,,,,,,,,,,,,,,1,2022-11-01_20h54.34.424,musicalMathTest,2022.2.0,59.95502174
music\calm\vocals\Brand New Feelings (90) by Land of Legs.wav,brand new feelings,calm,vocals,1,90,A,multiply,3,10,30,31,38,40,0,1,1,1,0,37,37,74,,,,,,,,,,,,,,,,,,,,,,,,,,,,,,,207.209384,207.209384,207.209384,207.209384,207.209384,0.0041258,207.209384,TRUE,-0.286111111,-0.407407407,1,0,0,ansOne,,,,,,,,,,,,,,,,,1,2022-11-01_20h54.34.424,musicalMathTest,2022.2.0,59.95502174
music\calm\vocals\Brand New Feelings (90) by Land of Legs.wav,brand new feelings,calm,vocals,1,90,A,multiply,5,4,20,25,28,26,0,1,1,1,0,38,38,72,,,,,,,,,,,,,,,,,,,,,,,,,,,,,,,208.4926915,208.4926915,208.4926915,208.4926915,208.4926915,0.0041103,208.4926915,TRUE,-0.089814815,-0.405555556,1,0,0,ansTwo,,,,,,,,,,,,,,,,,1,2022-11-01_20h54.34.424,musicalMathTest,2022.2.0,59.95502174
music\calm\vocals\Brand New Feelings (90) by Land of Legs.wav,brand new feelings,calm,vocals,1,90,A,add,55,55,110,117,115,119,0,1,1,1,0,39,39,17,,,,,,,,,,,,,,,,,,,,,,,,,,,,,,,209.6260097,209.6260097,209.6260097,209.6260097,209.6260097,0.0041312,209.6260097,TRUE,0.108333333,-0.413888889,1,0,0,ansThree,,,,,,,,,,,,,,,,,1,2022-11-01_20h54.34.424,musicalMathTest,2022.2.0,59.95502174
music\calm\vocals\Brand New Feelings (90) by Land of Legs.wav,brand new feelings,calm,vocals,1,90,A,multiply,10,3,30,32,33,37,0,1,1,1,0,40,40,94,,,,,,,,,,,,,,,,,,,,,,,,,,,,,,,211.9593867,211.9593867,211.9593867,211.9593867,211.9593867,0.0045231,211.9593867,TRUE,0.100925926,-0.396296296,1,0,0,ansThree,,,,,,,,,,,,,,,,,1,2022-11-01_20h54.34.424,musicalMathTest,2022.2.0,59.95502174
music\silence.wav,silent,silent,silent,1,90,A,add,56,52,108,112,110,111,0,2,2,9,0,0,0,1,,,,,,,,,,,,,,,,,,,,,,,,219.6594318,0.007073,-0.057407407,-0.018518519,1,0,0,221.4927717,221.4927717,221.4927717,221.4927717,221.4927717,0.014852,221.4927717,TRUE,-0.301851852,-0.401851852,1,0,0,ansOne,214.6593862,219.6594318,,,,,,,,,,,,,,,1,2022-11-01_20h54.34.424,musicalMathTest,2022.2.0,59.95502174
music\silence.wav,silent,silent,silent,1,90,A,add,52,17,69,70,75,71,0,2,2,9,0,1,1,17,,,,,,,,,,,,,,,,,,,,,,,,,,,,,,,223.8427678,223.8427678,223.8427678,223.8427678,223.8427678,0.0040042,223.8427678,TRUE,0.086111111,-0.409259259,1,0,0,ansThree,,,,,,,,,,,,,,,,,1,2022-11-01_20h54.34.424,musicalMathTest,2022.2.0,59.95502174
music\silence.wav,silent,silent,silent,1,90,A,multiply,10,8,80,90,81,90,0,2,2,9,0,2,2,78,,,,,,,,,,,,,,,,,,,,,,,,,,,,,,,225.8094584,225.8094584,225.8094584,225.8094584,225.8094584,0.0042076,225.8094584,TRUE,-0.299074074,-0.396296296,1,0,0,ansOne,,,,,,,,,,,,,,,,,1,2022-11-01_20h54.34.424,musicalMathTest,2022.2.0,59.95502174
music\silence.wav,silent,silent,silent,1,90,A,subtract,48,45,3,7,6,10,0,2,2,9,0,3,3,38,,,,,,,,,,,,,,,,,,,,,,,,,,,,,,,227.9428207,227.9428207,227.9428207,227.9428207,227.9428207,0.0039878,227.9428207,TRUE,0.101851852,-0.398148148,1,0,0,ansThree,,,,,,,,,,,,,,,,,1,2022-11-01_20h54.34.424,musicalMathTest,2022.2.0,59.95502174
music\silence.wav,silent,silent,silent,1,90,A,multiply,10,5,50,57,53,57,0,2,2,9,0,4,4,104,,,,,,,,,,,,,,,,,,,,,,,,,,,,,,,229.6261479,229.6261479,229.6261479,229.6261479,229.6261479,0.0041733,229.6261479,TRUE,0.110185185,-0.412037037,1,0,0,ansThree,,,,,,,,,,,,,,,,,1,2022-11-01_20h54.34.424,musicalMathTest,2022.2.0,59.95502174
music\silence.wav,silent,silent,silent,1,90,A,subtract,36,35,1,6,8,2,0,2,2,9,0,5,5,40,,,,,,,,,,,,,,,,,,,,,,,,,,,,,,,230.8928512,230.8928512,230.8928512,230.8928512,230.8928512,0.0039763,230.8928512,TRUE,0.098148148,-0.407407407,1,0,0,ansThree,,,,,,,,,,,,,,,,,1,2022-11-01_20h54.34.424,musicalMathTest,2022.2.0,59.95502174
music\silence.wav,silent,silent,silent,1,90,A,subtract,30,29,1,5,7,5,0,2,2,9,0,6,6,49,,,,,,,,,,,,,,,,,,,,,,,,,,,,,,,232.8095116,232.8095116,232.8095116,232.8095116,232.8095116,0.0041177,232.8095116,TRUE,0.101851852,-0.40462963,1,0,0,ansThree,,,,,,,,,,,,,,,,,1,2022-11-01_20h54.34.424,musicalMathTest,2022.2.0,59.95502174
music\silence.wav,silent,silent,silent,1,90,A,multiply,10,16,160,164,170,166,0,2,2,9,0,7,7,65,,,,,,,,,,,,,,,,,,,,,,,,,,,,,,,234.0428625,234.0428625,234.0428625,234.0428625,234.0428625,0.0041192,234.0428625,TRUE,-0.082407407,-0.394444444,1,0,0,ansTwo,,,,,,,,,,,,,,,,,1,2022-11-01_20h54.34.424,musicalMathTest,2022.2.0,59.95502174
music\silence.wav,silent,silent,silent,1,90,A,subtract,29,20,9,12,17,12,0,2,2,9,0,8,8,33,,,,,,,,,,,,,,,,,,,,,,,,,,,,,,,235.0262047,235.0262047,235.0262047,235.0262047,235.0262047,0.0041862,235.0262047,TRUE,-0.093518519,-0.393518519,1,0,0,ansTwo,,,,,,,,,,,,,,,,,1,2022-11-01_20h54.34.424,musicalMathTest,2022.2.0,59.95502174
music\silence.wav,silent,silent,silent,1,90,A,multiply,10,16,160,167,162,164,0,2,2,9,0,9,9,97,,,,,,,,,,,,,,,,,,,,,,,,,,,,,,,236.3262077,236.3262077,236.3262077,236.3262077,236.3262077,0.0041358,236.3262077,TRUE,-0.305555556,-0.394444444,1,0,0,ansOne,,,,,,,,,,,,,,,,,1,2022-11-01_20h54.34.424,musicalMathTest,2022.2.0,59.95502174
music\silence.wav,silent,silent,silent,1,90,A,multiply,5,10,50,55,60,53,0,2,2,9,0,10,10,92,,,,,,,,,,,,,,,,,,,,,,,,,,,,,,,237.609525,237.609525,237.609525,237.609525,237.609525,0.0047189,237.609525,TRUE,0.088888889,-0.397222222,1,0,0,ansThree,,,,,,,,,,,,,,,,,1,2022-11-01_20h54.34.424,musicalMathTest,2022.2.0,59.95502174
music\silence.wav,silent,silent,silent,1,90,A,subtract,57,52,5,6,7,11,0,2,2,9,0,11,11,42,,,,,,,,,,,,,,,,,,,,,,,,,,,,,,,239.3595707,239.3595707,239.3595707,239.3595707,239.3595707,0.0039709,239.3595707,TRUE,-0.103703704,-0.398148148,1,0,0,ansTwo,,,,,,,,,,,,,,,,,1,2022-11-01_20h54.34.424,musicalMathTest,2022.2.0,59.95502174
music\silence.wav,silent,silent,silent,1,90,A,subtract,52,18,34,36,37,24,0,2,2,9,0,12,12,51,,,,,,,,,,,,,,,,,,,,,,,,,,,,,,,241.4929107,241.4929107,241.4929107,241.4929107,241.4929107,0.0042255,241.4929107,TRUE,-0.09537037,-0.40462963,1,0,0,ansTwo,,,,,,,,,,,,,,,,,1,2022-11-01_20h54.34.424,musicalMathTest,2022.2.0,59.95502174
music\silence.wav,silent,silent,silent,1,90,A,multiply,9,2,18,19,21,24,0,2,2,9,0,13,13,115,,,,,,,,,,,,,,,,,,,,,,,,,,,,,,,246.9429404,246.9429404,246.9429404,246.9429404,246.9429404,0.0040216,246.9429404,TRUE,0.084259259,-0.398148148,1,0,0,ansThree,,,,,,,,,,,,,,,,,1,2022-11-01_20h54.34.424,musicalMathTest,2022.2.0,59.95502174
music\silence.wav,silent,silent,silent,1,90,A,multiply,9,10,90,96,98,92,0,2,2,9,0,14,14,91,,,,,,,,,,,,,,,,,,,,,,,,,,,,,,,249.3929621,249.3929621,249.3929621,249.3929621,249.3929621,0.004138,249.3929621,TRUE,0.117592593,-0.391666667,1,0,0,ansThree,,,,,,,,,,,,,,,,,1,2022-11-01_20h54.34.424,musicalMathTest,2022.2.0,59.95502174
music\silence.wav,silent,silent,silent,1,90,A,subtract,40,35,5,10,9,13,0,2,2,9,0,15,15,37,,,,,,,,,,,,,,,,,,,,,,,,,,,,,,,250.5096264,250.5096264,250.5096264,250.5096264,250.5096264,0.0040279,250.5096264,TRUE,0.093518519,-0.392592593,1,0,0,ansThree,,,,,,,,,,,,,,,,,1,2022-11-01_20h54.34.424,musicalMathTest,2022.2.0,59.95502174
music\silence.wav,silent,silent,silent,1,90,A,subtract,52,24,28,32,29,32,0,2,2,9,0,16,16,58,,,,,,,,,,,,,,,,,,,,,,,,,,,,,,,252.5930081,252.5930081,252.5930081,252.5930081,252.5930081,0.0042212,252.5930081,TRUE,-0.289814815,-0.406481481,1,0,0,ansOne,,,,,,,,,,,,,,,,,1,2022-11-01_20h54.34.424,musicalMathTest,2022.2.0,59.95502174
music\silence.wav,silent,silent,silent,1,90,A,add,35,24,59,60,61,66,0,2,2,9,0,17,17,19,,,,,,,,,,,,,,,,,,,,,,,,,,,,,,,257.8096685,257.8096685,257.8096685,257.8096685,257.8096685,0.0040683,257.8096685,TRUE,0.106481481,-0.397222222,1,0,0,ansThree,,,,,,,,,,,,,,,,,1,2022-11-01_20h54.34.424,musicalMathTest,2022.2.0,59.95502174
music\silence.wav,silent,silent,silent,1,90,A,multiply,8,10,80,88,82,85,0,2,2,9,0,18,18,66,,,,,,,,,,,,,,,,,,,,,,,,,,,,,,,261.8430683,261.8430683,261.8430683,261.8430683,261.8430683,0.0042267,261.8430683,TRUE,-0.087037037,-0.40462963,1,0,0,ansTwo,,,,,,,,,,,,,,,,,1,2022-11-01_20h54.34.424,musicalMathTest,2022.2.0,59.95502174
music\silence.wav,silent,silent,silent,1,90,A,multiply,5,10,50,52,60,51,0,2,2,9,0,19,19,108,,,,,,,,,,,,,,,,,,,,,,,,,,,,,,,262.9597115,262.9597115,262.9597115,262.9597115,262.9597115,0.0040116,262.9597115,TRUE,-0.297222222,-0.397222222,1,0,0,ansOne,,,,,,,,,,,,,,,,,1,2022-11-01_20h54.34.424,musicalMathTest,2022.2.0,59.95502174
music\silence.wav,silent,silent,silent,1,90,A,add,49,45,94,101,98,96,0,2,2,9,0,20,20,13,,,,,,,,,,,,,,,,,,,,,,,,,,,,,,,265.5930596,265.5930596,265.5930596,265.5930596,265.5930596,0.0043462,265.5930596,TRUE,-0.299074074,-0.400925926,1,0,0,ansOne,,,,,,,,,,,,,,,,,1,2022-11-01_20h54.34.424,musicalMathTest,2022.2.0,59.95502174
music\silence.wav,silent,silent,silent,1,90,A,add,38,35,73,79,80,74,0,2,2,9,0,21,21,12,,,,,,,,,,,,,,,,,,,,,,,,,,,,,,,267.943051,267.943051,267.943051,267.943051,267.943051,0.0041968,267.943051,TRUE,-0.102777778,-0.399074074,1,0,0,ansTwo,,,,,,,,,,,,,,,,,1,2022-11-01_20h54.34.424,musicalMathTest,2022.2.0,59.95502174
music\silence.wav,silent,silent,silent,1,90,A,multiply,2,9,18,19,22,26,0,2,2,9,0,22,22,87,,,,,,,,,,,,,,,,,,,,,,,,,,,,,,,269.9597575,269.9597575,269.9597575,269.9597575,269.9597575,0.0042646,269.9597575,TRUE,-0.283333333,-0.397222222,1,0,0,ansOne,,,,,,,,,,,,,,,,,1,2022-11-01_20h54.34.424,musicalMathTest,2022.2.0,59.95502174
music\silence.wav,silent,silent,silent,1,90,A,multiply,5,8,40,46,43,45,0,2,2,9,0,23,23,110,,,,,,,,,,,,,,,,,,,,,,,,,,,,,,,271.4264379,271.4264379,271.4264379,271.4264379,271.4264379,0.0039918,271.4264379,TRUE,-0.287037037,-0.400925926,1,0,0,ansOne,,,,,,,,,,,,,,,,,1,2022-11-01_20h54.34.424,musicalMathTest,2022.2.0,59.95502174
music\silence.wav,silent,silent,silent,1,90,A,multiply,10,8,80,86,88,84,0,2,2,9,0,24,24,62,,,,,,,,,,,,,,,,,,,,,,,,,,,,,,,273.2598118,273.2598118,273.2598118,273.2598118,273.2598118,0.0042111,273.2598118,TRUE,-0.10462963,-0.403703704,1,0,0,ansTwo,,,,,,,,,,,,,,,,,1,2022-11-01_20h54.34.424,musicalMathTest,2022.2.0,59.95502174
music\silence.wav,silent,silent,silent,1,90,A,multiply,10,9,90,97,94,97,0,2,2,9,0,25,25,95,,,,,,,,,,,,,,,,,,,,,,,,,,,,,,,274.5431367,274.5431367,274.5431367,274.5431367,274.5431367,0.0040074,274.5431367,TRUE,-0.298148148,-0.4,1,0,0,ansOne,,,,,,,,,,,,,,,,,1,2022-11-01_20h54.34.424,musicalMathTest,2022.2.0,59.95502174
music\silence.wav,silent,silent,silent,1,90,A,add,52,29,81,84,87,82,0,2,2,9,0,26,26,30,,,,,,,,,,,,,,,,,,,,,,,,,,,,,,,275.6264855,275.6264855,275.6264855,275.6264855,275.6264855,0.004212,275.6264855,TRUE,0.092592593,-0.396296296,1,0,0,ansThree,,,,,,,,,,,,,,,,,1,2022-11-01_20h54.34.424,musicalMathTest,2022.2.0,59.95502174
music\silence.wav,silent,silent,silent,1,90,A,subtract,52,17,35,43,41,38,0,2,2,9,0,27,27,48,,,,,,,,,,,,,,,,,,,,,,,,,,,,,,,277.993156,277.993156,277.993156,277.993156,277.993156,0.0040118,277.993156,TRUE,0.098148148,-0.397222222,1,0,0,ansThree,,,,,,,,,,,,,,,,,1,2022-11-01_20h54.34.424,musicalMathTest,2022.2.0,59.95502174
music\silence.wav,silent,silent,silent,1,90,A,multiply,2,5,10,12,20,13,0,2,2,9,0,28,28,88,,,,,,,,,,,,,,,,,,,,,,,,,,,,,,,281.9765217,281.9765217,281.9765217,281.9765217,281.9765217,0.0041228,281.9765217,TRUE,0.111111111,-0.389814815,1,0,0,ansThree,,,,,,,,,,,,,,,,,1,2022-11-01_20h54.34.424,musicalMathTest,2022.2.0,59.95502174
music\silence.wav,silent,silent,silent,1,90,A,add,57,52,109,117,113,117,0,2,2,9,0,29,29,11,,,,,,,,,,,,,,,,,,,,,,,,,,,,,,,283.9931915,283.9931915,283.9931915,283.9931915,283.9931915,0.0040117,283.9931915,TRUE,-0.076851852,-0.390740741,1,0,0,ansTwo,,,,,,,,,,,,,,,,,1,2022-11-01_20h54.34.424,musicalMathTest,2022.2.0,59.95502174
music\silence.wav,silent,silent,silent,1,90,A,subtract,45,18,27,28,30,33,0,2,2,9,0,30,30,47,,,,,,,,,,,,,,,,,,,,,,,,,,,,,,,286.6432342,286.6432342,286.6432342,286.6432342,286.6432342,0.004138,286.6432342,TRUE,0.109259259,-0.408333333,1,0,0,ansThree,,,,,,,,,,,,,,,,,1,2022-11-01_20h54.34.424,musicalMathTest,2022.2.0,59.95502174
music\silence.wav,silent,silent,silent,1,90,A,add,52,18,70,71,76,74,0,2,2,9,0,31,31,20,,,,,,,,,,,,,,,,,,,,,,,,,,,,,,,291.3765924,291.3765924,291.3765924,291.3765924,291.3765924,0.0039413,291.3765924,TRUE,0.099074074,-0.396296296,1,0,0,ansThree,,,,,,,,,,,,,,,,,1,2022-11-01_20h54.34.424,musicalMathTest,2022.2.0,59.95502174
music\silence.wav,silent,silent,silent,1,90,A,multiply,9,10,90,100,97,92,0,2,2,9,0,32,32,67,,,,,,,,,,,,,,,,,,,,,,,,,,,,,,,294.8599331,294.8599331,294.8599331,294.8599331,294.8599331,0.0046462,294.8599331,TRUE,-0.084259259,-0.407407407,1,0,0,ansTwo,,,,,,,,,,,,,,,,,1,2022-11-01_20h54.34.424,musicalMathTest,2022.2.0,59.95502174
music\silence.wav,silent,silent,silent,1,90,A,multiply,16,5,80,82,86,90,0,2,2,9,0,33,33,101,,,,,,,,,,,,,,,,,,,,,,,,,,,,,,,296.0766735,296.0766735,296.0766735,296.0766735,296.0766735,0.0040056,296.0766735,TRUE,-0.091666667,-0.397222222,1,0,0,ansTwo,,,,,,,,,,,,,,,,,1,2022-11-01_20h54.34.424,musicalMathTest,2022.2.0,59.95502174
music\silence.wav,silent,silent,silent,1,90,A,add,29,20,49,50,53,50,0,2,2,9,0,34,34,2,,,,,,,,,,,,,,,,,,,,,,,,,,,,,,,299.5099541,299.5099541,299.5099541,299.5099541,299.5099541,0.0045792,299.5099541,TRUE,-0.089814815,-0.405555556,1,0,0,ansTwo,,,,,,,,,,,,,,,,,1,2022-11-01_20h54.34.424,musicalMathTest,2022.2.0,59.95502174
music\silence.wav,silent,silent,silent,1,90,A,multiply,10,16,160,167,170,164,0,2,2,9,0,35,35,105,,,,,,,,,,,,,,,,,,,,,,,,,,,,,,,301.5600034,301.5600034,301.5600034,301.5600034,301.5600034,0.0041298,301.5600034,TRUE,0.097222222,-0.40462963,1,0,0,ansThree,,,,,,,,,,,,,,,,,1,2022-11-01_20h54.34.424,musicalMathTest,2022.2.0,59.95502174
music\silence.wav,silent,silent,silent,1,90,A,multiply,9,5,45,51,47,53,0,2,2,9,0,36,36,83,,,,,,,,,,,,,,,,,,,,,,,,,,,,,,,302.9933184,302.9933184,302.9933184,302.9933184,302.9933184,0.0041551,302.9933184,TRUE,-0.314814815,-0.398148148,1,0,0,ansOne,,,,,,,,,,,,,,,,,1,2022-11-01_20h54.34.424,musicalMathTest,2022.2.0,59.95502174
music\silence.wav,silent,silent,silent,1,90,A,subtract,45,29,16,20,23,22,0,2,2,9,0,37,37,57,,,,,,,,,,,,,,,,,,,,,,,,,,,,,,,304.4600037,304.4600037,304.4600037,304.4600037,304.4600037,0.0042483,304.4600037,TRUE,-0.307407407,-0.403703704,1,0,0,ansOne,,,,,,,,,,,,,,,,,1,2022-11-01_20h54.34.424,musicalMathTest,2022.2.0,59.95502174
music\calm\vocals\You & Me featuring Ural Thomas (90) by Bridge City Revival.wav,you and me,calm,vocals,1,90,A,multiply,3,2,6,9,10,13,0,3,3,7,0,0,0,114,,,,,,,,,,,,,,,,,,,,,,,,317.6767712,0.0023556,-0.073148148,-0.271296296,1,0,0,321.2767894,321.2767894,321.2767894,321.2767894,321.2767894,0.0165322,321.2767894,TRUE,-0.108333333,-0.405555556,1,0,0,ansTwo,312.6766929,317.6767712,,,,,,,,,,,,,,,1,2022-11-01_20h54.34.424,musicalMathTest,2022.2.0,59.95502174
music\calm\vocals\You & Me featuring Ural Thomas (90) by Bridge City Revival.wav,you and me,calm,vocals,1,90,A,subtract,55,19,36,42,43,37,0,3,3,7,0,1,1,44,,,,,,,,,,,,,,,,,,,,,,,,,,,,,,,322.760121,322.760121,322.760121,322.760121,322.760121,0.0041669,322.760121,TRUE,0.108333333,-0.39537037,1,0,0,ansThree,,,,,,,,,,,,,,,,,1,2022-11-01_20h54.34.424,musicalMathTest,2022.2.0,59.95502174
music\calm\vocals\You & Me featuring Ural Thomas (90) by Bridge City Revival.wav,you and me,calm,vocals,1,90,A,multiply,10,17,170,180,177,171,0,3,3,7,0,2,2,81,,,,,,,,,,,,,,,,,,,,,,,,,,,,,,,326.8101494,326.8101494,326.8101494,326.8101494,326.8101494,0.0044283,326.8101494,TRUE,0.122222222,-0.405555556,1,0,0,ansThree,,,,,,,,,,,,,,,,,1,2022-11-01_20h54.34.424,musicalMathTest,2022.2.0,59.95502174
music\calm\vocals\You & Me featuring Ural Thomas (90) by Bridge City Revival.wav,you and me,calm,vocals,1,90,A,multiply,17,5,85,86,93,88,0,3,3,7,0,3,3,101,,,,,,,,,,,,,,,,,,,,,,,,,,,,,,,329.0935011,329.0935011,329.0935011,329.0935011,329.0935011,0.0039746,329.0935011,TRUE,0.105555556,-0.389814815,1,0,0,ansThree,,,,,,,,,,,,,,,,,1,2022-11-01_20h54.34.424,musicalMathTest,2022.2.0,59.95502174
music\calm\vocals\You & Me featuring Ural Thomas (90) by Bridge City Revival.wav,you and me,calm,vocals,1,90,A,multiply,10,17,170,171,178,176,0,3,3,7,0,4,4,65,,,,,,,,,,,,,,,,,,,,,,,,,,,,,,,331.6268321,331.6268321,331.6268321,331.6268321,331.6268321,0.0042525,331.6268321,TRUE,-0.074074074,-0.403703704,1,0,0,ansTwo,,,,,,,,,,,,,,,,,1,2022-11-01_20h54.34.424,musicalMathTest,2022.2.0,59.95502174
music\calm\vocals\You & Me featuring Ural Thomas (90) by Bridge City Revival.wav,you and me,calm,vocals,1,90,A,subtract,16,15,1,7,3,7,0,3,3,7,0,5,5,45,,,,,,,,,,,,,,,,,,,,,,,,,,,,,,,332.6935228,332.6935228,332.6935228,332.6935228,332.6935228,0.0040064,332.6935228,TRUE,-0.102777778,-0.417592593,1,0,0,ansTwo,,,,,,,,,,,,,,,,,1,2022-11-01_20h54.34.424,musicalMathTest,2022.2.0,59.95502174
music\calm\vocals\You & Me featuring Ural Thomas (90) by Bridge City Revival.wav,you and me,calm,vocals,1,90,A,add,41,39,80,82,87,86,0,3,3,7,0,6,6,8,,,,,,,,,,,,,,,,,,,,,,,,,,,,,,,334.176891,334.176891,334.176891,334.176891,334.176891,0.0042083,334.176891,TRUE,0.114814815,-0.401851852,1,0,0,ansThree,,,,,,,,,,,,,,,,,1,2022-11-01_20h54.34.424,musicalMathTest,2022.2.0,59.95502174
music\calm\vocals\You & Me featuring Ural Thomas (90) by Bridge City Revival.wav,you and me,calm,vocals,1,90,A,subtract,40,37,3,6,7,9,0,3,3,7,0,7,7,58,,,,,,,,,,,,,,,,,,,,,,,,,,,,,,,336.5268978,336.5268978,336.5268978,336.5268978,336.5268978,0.0039545,336.5268978,TRUE,-0.290740741,-0.405555556,1,0,0,ansOne,,,,,,,,,,,,,,,,,1,2022-11-01_20h54.34.424,musicalMathTest,2022.2.0,59.95502174
music\calm\vocals\You & Me featuring Ural Thomas (90) by Bridge City Revival.wav,you and me,calm,vocals,1,90,A,subtract,41,39,2,8,4,7,0,3,3,7,0,8,8,39,,,,,,,,,,,,,,,,,,,,,,,,,,,,,,,338.593573,338.593573,338.593573,338.593573,338.593573,0.0040909,338.593573,TRUE,-0.1,-0.393518519,1,0,0,ansTwo,,,,,,,,,,,,,,,,,1,2022-11-01_20h54.34.424,musicalMathTest,2022.2.0,59.95502174
music\calm\vocals\You & Me featuring Ural Thomas (90) by Bridge City Revival.wav,you and me,calm,vocals,1,90,A,subtract,26,23,3,6,7,6,0,3,3,7,0,9,9,47,,,,,,,,,,,,,,,,,,,,,,,,,,,,,,,340.8936334,340.8936334,340.8936334,340.8936334,340.8936334,0.0038442,340.8936334,TRUE,0.101851852,-0.4,1,0,0,ansThree,,,,,,,,,,,,,,,,,1,2022-11-01_20h54.34.424,musicalMathTest,2022.2.0,59.95502174
music\calm\vocals\You & Me featuring Ural Thomas (90) by Bridge City Revival.wav,you and me,calm,vocals,1,90,A,multiply,5,4,20,25,28,26,0,3,3,7,0,10,10,72,,,,,,,,,,,,,,,,,,,,,,,,,,,,,,,343.5102667,343.5102667,343.5102667,343.5102667,343.5102667,0.0041594,343.5102667,TRUE,-0.312037037,-0.400925926,1,0,0,ansOne,,,,,,,,,,,,,,,,,1,2022-11-01_20h54.34.424,musicalMathTest,2022.2.0,59.95502174
music\calm\vocals\You & Me featuring Ural Thomas (90) by Bridge City Revival.wav,you and me,calm,vocals,1,90,A,add,60,55,115,125,117,121,0,3,3,7,0,11,11,25,,,,,,,,,,,,,,,,,,,,,,,,,,,,,,,344.5602713,344.5602713,344.5602713,344.5602713,344.5602713,0.0041205,344.5602713,TRUE,-0.084259259,-0.398148148,1,0,0,ansTwo,,,,,,,,,,,,,,,,,1,2022-11-01_20h54.34.424,musicalMathTest,2022.2.0,59.95502174
music\calm\vocals\You & Me featuring Ural Thomas (90) by Bridge City Revival.wav,you and me,calm,vocals,1,90,A,multiply,10,17,170,173,176,180,0,3,3,7,0,12,12,97,,,,,,,,,,,,,,,,,,,,,,,,,,,,,,,347.8269889,347.8269889,347.8269889,347.8269889,347.8269889,0.0042909,347.8269889,TRUE,-0.094444444,-0.40462963,1,0,0,ansTwo,,,,,,,,,,,,,,,,,1,2022-11-01_20h54.34.424,musicalMathTest,2022.2.0,59.95502174
music\calm\vocals\You & Me featuring Ural Thomas (90) by Bridge City Revival.wav,you and me,calm,vocals,1,90,A,multiply,17,10,170,177,174,180,0,3,3,7,0,13,13,93,,,,,,,,,,,,,,,,,,,,,,,,,,,,,,,349.9269986,349.9269986,349.9269986,349.9269986,349.9269986,0.0041945,349.9269986,TRUE,0.109259259,-0.398148148,1,0,0,ansThree,,,,,,,,,,,,,,,,,1,2022-11-01_20h54.34.424,musicalMathTest,2022.2.0,59.95502174
music\calm\vocals\You & Me featuring Ural Thomas (90) by Bridge City Revival.wav,you and me,calm,vocals,1,90,A,subtract,37,37,0,2,4,2,0,3,3,7,0,14,14,50,,,,,,,,,,,,,,,,,,,,,,,,,,,,,,,351.3436868,351.3436868,351.3436868,351.3436868,351.3436868,0.0042433,351.3436868,TRUE,-0.1,-0.388888889,1,0,0,ansTwo,,,,,,,,,,,,,,,,,1,2022-11-01_20h54.34.424,musicalMathTest,2022.2.0,59.95502174
music\calm\vocals\You & Me featuring Ural Thomas (90) by Bridge City Revival.wav,you and me,calm,vocals,1,90,A,subtract,58,55,3,6,10,7,0,3,3,7,0,15,15,60,,,,,,,,,,,,,,,,,,,,,,,,,,,,,,,352.2770192,352.2770192,352.2770192,352.2770192,352.2770192,0.0039363,352.2770192,TRUE,0.099074074,-0.402777778,1,0,0,ansThree,,,,,,,,,,,,,,,,,1,2022-11-01_20h54.34.424,musicalMathTest,2022.2.0,59.95502174
music\calm\vocals\You & Me featuring Ural Thomas (90) by Bridge City Revival.wav,you and me,calm,vocals,1,90,A,multiply,10,4,40,46,42,45,0,3,3,7,0,16,16,96,,,,,,,,,,,,,,,,,,,,,,,,,,,,,,,355.7436883,355.7436883,355.7436883,355.7436883,355.7436883,0.0043386,355.7436883,TRUE,-0.287962963,-0.397222222,1,0,0,ansOne,,,,,,,,,,,,,,,,,1,2022-11-01_20h54.34.424,musicalMathTest,2022.2.0,59.95502174
music\calm\vocals\You & Me featuring Ural Thomas (90) by Bridge City Revival.wav,you and me,calm,vocals,1,90,A,subtract,40,39,1,6,3,9,0,3,3,7,0,17,17,46,,,,,,,,,,,,,,,,,,,,,,,,,,,,,,,358.1437174,358.1437174,358.1437174,358.1437174,358.1437174,0.0040239,358.1437174,TRUE,-0.099074074,-0.391666667,1,0,0,ansTwo,,,,,,,,,,,,,,,,,1,2022-11-01_20h54.34.424,musicalMathTest,2022.2.0,59.95502174
music\calm\vocals\You & Me featuring Ural Thomas (90) by Bridge City Revival.wav,you and me,calm,vocals,1,90,A,multiply,10,15,150,151,153,157,0,3,3,7,0,18,18,79,,,,,,,,,,,,,,,,,,,,,,,,,,,,,,,359.3770439,359.3770439,359.3770439,359.3770439,359.3770439,0.0042679,359.3770439,TRUE,0.093518519,-0.405555556,1,0,0,ansThree,,,,,,,,,,,,,,,,,1,2022-11-01_20h54.34.424,musicalMathTest,2022.2.0,59.95502174
music\calm\vocals\You & Me featuring Ural Thomas (90) by Bridge City Revival.wav,you and me,calm,vocals,1,90,A,multiply,4,10,40,47,43,44,0,3,3,7,0,19,19,76,,,,,,,,,,,,,,,,,,,,,,,,,,,,,,,360.727069,360.727069,360.727069,360.727069,360.727069,0.0040683,360.727069,TRUE,-0.290740741,-0.393518519,1,0,0,ansOne,,,,,,,,,,,,,,,,,1,2022-11-01_20h54.34.424,musicalMathTest,2022.2.0,59.95502174
music\calm\vocals\You & Me featuring Ural Thomas (90) by Bridge City Revival.wav,you and me,calm,vocals,1,90,A,add,58,55,113,123,119,114,0,3,3,7,0,20,20,29,,,,,,,,,,,,,,,,,,,,,,,,,,,,,,,361.8770838,361.8770838,361.8770838,361.8770838,361.8770838,0.0045446,361.8770838,TRUE,-0.084259259,-0.398148148,1,0,0,ansTwo,,,,,,,,,,,,,,,,,1,2022-11-01_20h54.34.424,musicalMathTest,2022.2.0,59.95502174
music\calm\vocals\You & Me featuring Ural Thomas (90) by Bridge City Revival.wav,you and me,calm,vocals,1,90,A,multiply,10,3,30,37,39,35,0,3,3,7,0,21,21,102,,,,,,,,,,,,,,,,,,,,,,,,,,,,,,,363.7771054,363.7771054,363.7771054,363.7771054,363.7771054,0.0040549,363.7771054,TRUE,-0.285185185,-0.403703704,1,0,0,ansOne,,,,,,,,,,,,,,,,,1,2022-11-01_20h54.34.424,musicalMathTest,2022.2.0,59.95502174
music\calm\vocals\You & Me featuring Ural Thomas (90) by Bridge City Revival.wav,you and me,calm,vocals,1,90,A,subtract,23,15,8,13,11,12,0,3,3,7,0,22,22,35,,,,,,,,,,,,,,,,,,,,,,,,,,,,,,,365.0770919,365.0770919,365.0770919,365.0770919,365.0770919,0.0043133,365.0770919,TRUE,-0.301851852,-0.402777778,1,0,0,ansOne,,,,,,,,,,,,,,,,,1,2022-11-01_20h54.34.424,musicalMathTest,2022.2.0,59.95502174
music\calm\vocals\You & Me featuring Ural Thomas (90) by Bridge City Revival.wav,you and me,calm,vocals,1,90,A,subtract,19,19,0,2,1,8,0,3,3,7,0,23,23,41,,,,,,,,,,,,,,,,,,,,,,,,,,,,,,,371.943818,371.943818,371.943818,371.943818,371.943818,0.0039886,371.943818,TRUE,-0.10462963,-0.39537037,1,0,0,ansTwo,,,,,,,,,,,,,,,,,1,2022-11-01_20h54.34.424,musicalMathTest,2022.2.0,59.95502174
music\calm\vocals\You & Me featuring Ural Thomas (90) by Bridge City Revival.wav,you and me,calm,vocals,1,90,A,multiply,10,4,40,41,46,45,0,3,3,7,0,24,24,64,,,,,,,,,,,,,,,,,,,,,,,,,,,,,,,373.4104801,373.4104801,373.4104801,373.4104801,373.4104801,0.00413,373.4104801,TRUE,0.107407407,-0.409259259,1,0,0,ansThree,,,,,,,,,,,,,,,,,1,2022-11-01_20h54.34.424,musicalMathTest,2022.2.0,59.95502174
music\calm\vocals\You & Me featuring Ural Thomas (90) by Bridge City Revival.wav,you and me,calm,vocals,1,90,A,multiply,3,10,30,31,38,40,0,3,3,7,0,25,25,74,,,,,,,,,,,,,,,,,,,,,,,,,,,,,,,375.0271891,375.0271891,375.0271891,375.0271891,375.0271891,0.0039773,375.0271891,TRUE,-0.294444444,-0.407407407,1,0,0,ansOne,,,,,,,,,,,,,,,,,1,2022-11-01_20h54.34.424,musicalMathTest,2022.2.0,59.95502174
music\calm\vocals\You & Me featuring Ural Thomas (90) by Bridge City Revival.wav,you and me,calm,vocals,1,90,A,add,55,39,94,96,102,106,0,3,3,7,0,26,26,5,,,,,,,,,,,,,,,,,,,,,,,,,,,,,,,376.1105004,376.1105004,376.1105004,376.1105004,376.1105004,0.0044845,376.1105004,TRUE,0.111111111,-0.399074074,1,0,0,ansThree,,,,,,,,,,,,,,,,,1,2022-11-01_20h54.34.424,musicalMathTest,2022.2.0,59.95502174
music\calm\vocals\You & Me featuring Ural Thomas (90) by Bridge City Revival.wav,you and me,calm,vocals,1,90,A,subtract,25,23,2,9,5,8,0,3,3,7,0,27,27,51,,,,,,,,,,,,,,,,,,,,,,,,,,,,,,,379.5605109,379.5605109,379.5605109,379.5605109,379.5605109,0.0038672,379.5605109,TRUE,-0.108333333,-0.405555556,1,0,0,ansTwo,,,,,,,,,,,,,,,,,1,2022-11-01_20h54.34.424,musicalMathTest,2022.2.0,59.95502174
music\calm\vocals\You & Me featuring Ural Thomas (90) by Bridge City Revival.wav,you and me,calm,vocals,1,90,A,add,42,39,81,89,82,89,0,3,3,7,0,28,28,2,,,,,,,,,,,,,,,,,,,,,,,,,,,,,,,381.2105227,381.2105227,381.2105227,381.2105227,381.2105227,0.0050102,381.2105227,TRUE,-0.284259259,-0.396296296,1,0,0,ansOne,,,,,,,,,,,,,,,,,1,2022-11-01_20h54.34.424,musicalMathTest,2022.2.0,59.95502174
music\calm\vocals\You & Me featuring Ural Thomas (90) by Bridge City Revival.wav,you and me,calm,vocals,1,90,A,multiply,4,5,20,26,30,28,0,3,3,7,0,29,29,84,,,,,,,,,,,,,,,,,,,,,,,,,,,,,,,383.3605451,383.3605451,383.3605451,383.3605451,383.3605451,0.0039475,383.3605451,TRUE,-0.301851852,-0.397222222,1,0,0,ansOne,,,,,,,,,,,,,,,,,1,2022-11-01_20h54.34.424,musicalMathTest,2022.2.0,59.95502174
music\calm\vocals\You & Me featuring Ural Thomas (90) by Bridge City Revival.wav,you and me,calm,vocals,1,90,A,multiply,15,2,30,31,36,40,0,3,3,7,0,30,30,115,,,,,,,,,,,,,,,,,,,,,,,,,,,,,,,384.6439099,384.6439099,384.6439099,384.6439099,384.6439099,0.0041277,384.6439099,TRUE,-0.3,-0.405555556,1,0,0,ansOne,,,,,,,,,,,,,,,,,1,2022-11-01_20h54.34.424,musicalMathTest,2022.2.0,59.95502174
music\calm\vocals\You & Me featuring Ural Thomas (90) by Bridge City Revival.wav,you and me,calm,vocals,1,90,A,multiply,15,5,75,78,81,78,0,3,3,7,0,31,31,99,,,,,,,,,,,,,,,,,,,,,,,,,,,,,,,386.7439195,386.7439195,386.7439195,386.7439195,386.7439195,0.0042174,386.7439195,TRUE,-0.285185185,-0.39537037,1,0,0,ansOne,,,,,,,,,,,,,,,,,1,2022-11-01_20h54.34.424,musicalMathTest,2022.2.0,59.95502174
music\calm\vocals\You & Me featuring Ural Thomas (90) by Bridge City Revival.wav,you and me,calm,vocals,1,90,A,add,37,15,52,59,56,60,0,3,3,7,0,32,32,11,,,,,,,,,,,,,,,,,,,,,,,,,,,,,,,388.5605827,388.5605827,388.5605827,388.5605827,388.5605827,0.0041452,388.5605827,TRUE,-0.308333333,-0.405555556,1,0,0,ansOne,,,,,,,,,,,,,,,,,1,2022-11-01_20h54.34.424,musicalMathTest,2022.2.0,59.95502174
music\calm\vocals\You & Me featuring Ural Thomas (90) by Bridge City Revival.wav,you and me,calm,vocals,1,90,A,subtract,37,16,21,28,11,15,0,3,3,7,0,33,33,34,,,,,,,,,,,,,,,,,,,,,,,,,,,,,,,390.8272828,390.8272828,390.8272828,390.8272828,390.8272828,0.0040149,390.8272828,TRUE,-0.103703704,-0.40462963,1,0,0,ansTwo,,,,,,,,,,,,,,,,,1,2022-11-01_20h54.34.424,musicalMathTest,2022.2.0,59.95502174
music\calm\vocals\You & Me featuring Ural Thomas (90) by Bridge City Revival.wav,you and me,calm,vocals,1,90,A,add,20,16,36,42,44,43,0,3,3,7,0,34,34,6,,,,,,,,,,,,,,,,,,,,,,,,,,,,,,,395.5939844,395.5939844,395.5939844,395.5939844,395.5939844,0.0041583,395.5939844,TRUE,-0.083333333,-0.410185185,1,0,0,ansTwo,,,,,,,,,,,,,,,,,1,2022-11-01_20h54.34.424,musicalMathTest,2022.2.0,59.95502174
music\calm\vocals\You & Me featuring Ural Thomas (90) by Bridge City Revival.wav,you and me,calm,vocals,1,90,A,subtract,20,16,4,11,10,14,0,3,3,7,0,35,35,37,,,,,,,,,,,,,,,,,,,,,,,,,,,,,,,398.3606398,398.3606398,398.3606398,398.3606398,398.3606398,0.0040219,398.3606398,TRUE,-0.297222222,-0.4,1,0,0,ansOne,,,,,,,,,,,,,,,,,1,2022-11-01_20h54.34.424,musicalMathTest,2022.2.0,59.95502174
music\calm\vocals\You & Me featuring Ural Thomas (90) by Bridge City Revival.wav,you and me,calm,vocals,1,90,A,multiply,2,3,6,14,7,14,0,3,3,7,0,36,36,86,,,,,,,,,,,,,,,,,,,,,,,,,,,,,,,399.6606611,399.6606611,399.6606611,399.6606611,399.6606611,0.0041116,399.6606611,TRUE,-0.3,-0.391666667,1,0,0,ansOne,,,,,,,,,,,,,,,,,1,2022-11-01_20h54.34.424,musicalMathTest,2022.2.0,59.95502174
music\calm\vocals\You & Me featuring Ural Thomas (90) by Bridge City Revival.wav,you and me,calm,vocals,1,90,A,multiply,3,10,30,34,36,31,0,3,3,7,0,37,37,66,,,,,,,,,,,,,,,,,,,,,,,,,,,,,,,400.8439971,400.8439971,400.8439971,400.8439971,400.8439971,0.0040052,400.8439971,TRUE,0.094444444,-0.390740741,1,0,0,ansThree,,,,,,,,,,,,,,,,,1,2022-11-01_20h54.34.424,musicalMathTest,2022.2.0,59.95502174
music\calm\vocals\You & Me featuring Ural Thomas (90) by Bridge City Revival.wav,you and me,calm,vocals,1,90,A,multiply,10,4,40,41,50,54,0,3,3,7,0,38,38,104,,,,,,,,,,,,,,,,,,,,,,,,,,,,,,,402.4106959,402.4106959,402.4106959,402.4106959,402.4106959,0.0044469,402.4106959,TRUE,0.100925926,-0.394444444,1,0,0,ansThree,,,,,,,,,,,,,,,,,1,2022-11-01_20h54.34.424,musicalMathTest,2022.2.0,59.95502174
music\calm\vocals\You & Me featuring Ural Thomas (90) by Bridge City Revival.wav,you and me,calm,vocals,1,90,A,multiply,3,5,15,17,21,16,0,3,3,7,0,39,39,82,,,,,,,,,,,,,,,,,,,,,,,,,,,,,,,404.4940911,404.4940911,404.4940911,404.4940911,404.4940911,0.0039882,404.4940911,TRUE,-0.299074074,-0.399074074,1,0,0,ansOne,,,,,,,,,,,,,,,,,1,2022-11-01_20h54.34.424,musicalMathTest,2022.2.0,59.95502174
music\calm\vocals\You & Me featuring Ural Thomas (90) by Bridge City Revival.wav,you and me,calm,vocals,1,90,A,multiply,3,10,30,34,37,31,0,3,3,7,0,40,40,90,,,,,,,,,,,,,,,,,,,,,,,,,,,,,,,406.0273896,406.0273896,406.0273896,406.0273896,406.0273896,0.0044672,406.0273896,TRUE,0.085185185,-0.4,1,0,0,ansThree,,,,,,,,,,,,,,,,,1,2022-11-01_20h54.34.424,musicalMathTest,2022.2.0,59.95502174
music\calm\vocals\You & Me featuring Ural Thomas (90) by Bridge City Revival.wav,you and me,calm,vocals,1,90,A,add,27,23,50,57,60,53,0,3,3,7,0,41,41,28,,,,,,,,,,,,,,,,,,,,,,,,,,,,,,,407.7940694,407.7940694,407.7940694,407.7940694,407.7940694,0.0041219,407.7940694,TRUE,-0.285185185,-0.399074074,1,0,0,ansOne,,,,,,,,,,,,,,,,,1,2022-11-01_20h54.34.424,musicalMathTest,2022.2.0,59.95502174
music\active\vocals\Soda Pop (feat. Hot Air Balloon) (90) by Stony Pony.wav,soda pop,active,vocals,1,90,A,add,22,14,36,38,39,44,0,4,4,5,0,0,0,4,,,,,,,,,,,,,,,,,,,,,,,,416.8274465,0.0035237,0.118518519,-0.290740741,1,0,0,421.1274924,421.1274924,421.1274924,421.1274924,421.1274924,0.0191565,421.1274924,TRUE,-0.105555556,-0.40462963,1,0,0,ansTwo,411.8274073,416.8274465,,,,,,,,,,,,,,,1,2022-11-01_20h54.34.424,musicalMathTest,2022.2.0,59.95502174
music\active\vocals\Soda Pop (feat. Hot Air Balloon) (90) by Stony Pony.wav,soda pop,active,vocals,1,90,A,add,43,28,71,75,77,81,0,4,4,5,0,1,1,18,,,,,,,,,,,,,,,,,,,,,,,,,,,,,,,424.6775223,424.6775223,424.6775223,424.6775223,424.6775223,0.0040897,424.6775223,TRUE,0.087962963,-0.398148148,1,0,0,ansThree,,,,,,,,,,,,,,,,,1,2022-11-01_20h54.34.424,musicalMathTest,2022.2.0,59.95502174
music\active\vocals\Soda Pop (feat. Hot Air Balloon) (90) by Stony Pony.wav,soda pop,active,vocals,1,90,A,add,49,28,77,79,78,81,0,4,4,5,0,2,2,26,,,,,,,,,,,,,,,,,,,,,,,,,,,,,,,426.910841,426.910841,426.910841,426.910841,426.910841,0.0045177,426.910841,TRUE,0.10462963,-0.399074074,1,0,0,ansThree,,,,,,,,,,,,,,,,,1,2022-11-01_20h54.34.424,musicalMathTest,2022.2.0,59.95502174
music\active\vocals\Soda Pop (feat. Hot Air Balloon) (90) by Stony Pony.wav,soda pop,active,vocals,1,90,A,add,53,50,103,105,107,111,0,4,4,5,0,3,3,9,,,,,,,,,,,,,,,,,,,,,,,,,,,,,,,429.9108673,429.9108673,429.9108673,429.9108673,429.9108673,0.0042531,429.9108673,TRUE,-0.298148148,-0.406481481,1,0,0,ansOne,,,,,,,,,,,,,,,,,1,2022-11-01_20h54.34.424,musicalMathTest,2022.2.0,59.95502174
music\active\vocals\Soda Pop (feat. Hot Air Balloon) (90) by Stony Pony.wav,soda pop,active,vocals,1,90,A,multiply,12,5,60,70,64,63,0,4,4,5,0,4,4,98,,,,,,,,,,,,,,,,,,,,,,,,,,,,,,,432.4275821,432.4275821,432.4275821,432.4275821,432.4275821,0.0041915,432.4275821,TRUE,-0.306481481,-0.398148148,1,0,0,ansOne,,,,,,,,,,,,,,,,,1,2022-11-01_20h54.34.424,musicalMathTest,2022.2.0,59.95502174
music\active\vocals\Soda Pop (feat. Hot Air Balloon) (90) by Stony Pony.wav,soda pop,active,vocals,1,90,A,add,22,22,44,52,49,52,0,4,4,5,0,5,5,20,,,,,,,,,,,,,,,,,,,,,,,,,,,,,,,434.7109241,434.7109241,434.7109241,434.7109241,434.7109241,0.0040478,434.7109241,TRUE,-0.312962963,-0.403703704,1,0,0,ansOne,,,,,,,,,,,,,,,,,1,2022-11-01_20h54.34.424,musicalMathTest,2022.2.0,59.95502174
music\active\vocals\Soda Pop (feat. Hot Air Balloon) (90) by Stony Pony.wav,soda pop,active,vocals,1,90,A,multiply,10,21,210,217,218,216,0,4,4,5,0,6,6,97,,,,,,,,,,,,,,,,,,,,,,,,,,,,,,,435.9776796,435.9776796,435.9776796,435.9776796,435.9776796,0.004363,435.9776796,TRUE,-0.092592593,-0.399074074,1,0,0,ansTwo,,,,,,,,,,,,,,,,,1,2022-11-01_20h54.34.424,musicalMathTest,2022.2.0,59.95502174
music\active\vocals\Soda Pop (feat. Hot Air Balloon) (90) by Stony Pony.wav,soda pop,active,vocals,1,90,A,add,28,14,42,47,43,46,0,4,4,5,0,7,7,14,,,,,,,,,,,,,,,,,,,,,,,,,,,,,,,438.3276371,438.3276371,438.3276371,438.3276371,438.3276371,0.004062,438.3276371,TRUE,-0.292592593,-0.400925926,1,0,0,ansOne,,,,,,,,,,,,,,,,,1,2022-11-01_20h54.34.424,musicalMathTest,2022.2.0,59.95502174
music\active\vocals\Soda Pop (feat. Hot Air Balloon) (90) by Stony Pony.wav,soda pop,active,vocals,1,90,A,add,52,50,102,107,112,107,0,4,4,5,0,8,8,12,,,,,,,,,,,,,,,,,,,,,,,,,,,,,,,441.4276382,441.4276382,441.4276382,441.4276382,441.4276382,0.004366,441.4276382,FALSE,-0.112037037,-0.408333333,1,0,0,ansTwo,,,,,,,,,,,,,,,,,1,2022-11-01_20h54.34.424,musicalMathTest,2022.2.0,59.95502174
music\active\vocals\Soda Pop (feat. Hot Air Balloon) (90) by Stony Pony.wav,soda pop,active,vocals,1,90,A,multiply,10,2,20,30,21,25,0,4,4,5,0,9,9,103,,,,,,,,,,,,,,,,,,,,,,,,,,,,,,,443.2609674,443.2609674,443.2609674,443.2609674,443.2609674,0.0040107,443.2609674,TRUE,0.090740741,-0.407407407,1,0,0,ansThree,,,,,,,,,,,,,,,,,1,2022-11-01_20h54.34.424,musicalMathTest,2022.2.0,59.95502174
music\active\vocals\Soda Pop (feat. Hot Air Balloon) (90) by Stony Pony.wav,soda pop,active,vocals,1,90,A,subtract,28,14,14,20,22,26,0,4,4,5,0,10,10,45,,,,,,,,,,,,,,,,,,,,,,,,,,,,,,,445.9276702,445.9276702,445.9276702,445.9276702,445.9276702,0.0042323,445.9276702,TRUE,-0.311111111,-0.402777778,1,0,0,ansOne,,,,,,,,,,,,,,,,,1,2022-11-01_20h54.34.424,musicalMathTest,2022.2.0,59.95502174
music\active\vocals\Soda Pop (feat. Hot Air Balloon) (90) by Stony Pony.wav,soda pop,active,vocals,1,90,A,subtract,46,43,3,8,6,10,0,4,4,5,0,11,11,33,,,,,,,,,,,,,,,,,,,,,,,,,,,,,,,449.8443562,449.8443562,449.8443562,449.8443562,449.8443562,0.0038898,449.8443562,TRUE,-0.098148148,-0.401851852,1,0,0,ansTwo,,,,,,,,,,,,,,,,,1,2022-11-01_20h54.34.424,musicalMathTest,2022.2.0,59.95502174
music\active\vocals\Soda Pop (feat. Hot Air Balloon) (90) by Stony Pony.wav,soda pop,active,vocals,1,90,A,subtract,28,28,0,3,5,3,0,4,4,5,0,12,12,61,,,,,,,,,,,,,,,,,,,,,,,,,,,,,,,452.5777015,452.5777015,452.5777015,452.5777015,452.5777015,0.0041018,452.5777015,TRUE,0.099074074,-0.394444444,1,0,0,ansThree,,,,,,,,,,,,,,,,,1,2022-11-01_20h54.34.424,musicalMathTest,2022.2.0,59.95502174
music\active\vocals\Soda Pop (feat. Hot Air Balloon) (90) by Stony Pony.wav,soda pop,active,vocals,1,90,A,add,48,48,96,101,103,99,0,4,4,5,0,13,13,27,,,,,,,,,,,,,,,,,,,,,,,,,,,,,,,454.7777119,454.7777119,454.7777119,454.7777119,454.7777119,0.004037,454.7777119,TRUE,-0.306481481,-0.408333333,1,0,0,ansOne,,,,,,,,,,,,,,,,,1,2022-11-01_20h54.34.424,musicalMathTest,2022.2.0,59.95502174
music\active\vocals\Soda Pop (feat. Hot Air Balloon) (90) by Stony Pony.wav,soda pop,active,vocals,1,90,A,multiply,10,18,180,188,190,194,0,4,4,5,0,14,14,96,,,,,,,,,,,,,,,,,,,,,,,,,,,,,,,457.0943284,457.0943284,457.0943284,457.0943284,457.0943284,0.004222,457.0943284,TRUE,0.087962963,-0.406481481,1,0,0,ansThree,,,,,,,,,,,,,,,,,1,2022-11-01_20h54.34.424,musicalMathTest,2022.2.0,59.95502174
music\active\vocals\Soda Pop (feat. Hot Air Balloon) (90) by Stony Pony.wav,soda pop,active,vocals,1,90,A,multiply,2,10,20,22,23,30,0,4,4,5,0,15,15,75,,,,,,,,,,,,,,,,,,,,,,,,,,,,,,,459.1277715,459.1277715,459.1277715,459.1277715,459.1277715,0.0040585,459.1277715,TRUE,-0.097222222,-0.396296296,1,0,0,ansTwo,,,,,,,,,,,,,,,,,1,2022-11-01_20h54.34.424,musicalMathTest,2022.2.0,59.95502174
music\active\vocals\Soda Pop (feat. Hot Air Balloon) (90) by Stony Pony.wav,soda pop,active,vocals,1,90,A,multiply,18,10,180,190,184,182,0,4,4,5,0,16,16,68,,,,,,,,,,,,,,,,,,,,,,,,,,,,,,,460.3277637,460.3277637,460.3277637,460.3277637,460.3277637,0.0047155,460.3277637,TRUE,-0.296296296,-0.402777778,1,0,0,ansOne,,,,,,,,,,,,,,,,,1,2022-11-01_20h54.34.424,musicalMathTest,2022.2.0,59.95502174
music\active\vocals\Soda Pop (feat. Hot Air Balloon) (90) by Stony Pony.wav,soda pop,active,vocals,1,90,A,multiply,2,10,20,21,26,22,0,4,4,5,0,17,17,67,,,,,,,,,,,,,,,,,,,,,,,,,,,,,,,461.494359,461.494359,461.494359,461.494359,461.494359,0.003993,461.494359,TRUE,0.092592593,-0.394444444,1,0,0,ansThree,,,,,,,,,,,,,,,,,1,2022-11-01_20h54.34.424,musicalMathTest,2022.2.0,59.95502174
music\active\vocals\Soda Pop (feat. Hot Air Balloon) (90) by Stony Pony.wav,soda pop,active,vocals,1,90,A,multiply,5,12,60,68,67,70,0,4,4,5,0,18,18,110,,,,,,,,,,,,,,,,,,,,,,,,,,,,,,,462.6944234,462.6944234,462.6944234,462.6944234,462.6944234,0.0044433,462.6944234,TRUE,-0.098148148,-0.405555556,1,0,0,ansTwo,,,,,,,,,,,,,,,,,1,2022-11-01_20h54.34.424,musicalMathTest,2022.2.0,59.95502174
music\active\vocals\Soda Pop (feat. Hot Air Balloon) (90) by Stony Pony.wav,soda pop,active,vocals,1,90,A,add,25,14,39,42,44,40,0,4,4,5,0,19,19,1,,,,,,,,,,,,,,,,,,,,,,,,,,,,,,,464.2110991,464.2110991,464.2110991,464.2110991,464.2110991,0.0039793,464.2110991,TRUE,-0.308333333,-0.403703704,1,0,0,ansOne,,,,,,,,,,,,,,,,,1,2022-11-01_20h54.34.424,musicalMathTest,2022.2.0,59.95502174
music\active\vocals\Soda Pop (feat. Hot Air Balloon) (90) by Stony Pony.wav,soda pop,active,vocals,1,90,A,subtract,53,50,3,6,11,10,0,4,4,5,0,20,20,40,,,,,,,,,,,,,,,,,,,,,,,,,,,,,,,466.5111231,466.5111231,466.5111231,466.5111231,466.5111231,0.0041502,466.5111231,TRUE,0.096296296,-0.399074074,1,0,0,ansThree,,,,,,,,,,,,,,,,,1,2022-11-01_20h54.34.424,musicalMathTest,2022.2.0,59.95502174
music\active\vocals\Soda Pop (feat. Hot Air Balloon) (90) by Stony Pony.wav,soda pop,active,vocals,1,90,A,add,49,22,71,76,81,76,0,4,4,5,0,21,21,16,,,,,,,,,,,,,,,,,,,,,,,,,,,,,,,468.1111524,468.1111524,468.1111524,468.1111524,468.1111524,0.0039952,468.1111524,TRUE,-0.290740741,-0.403703704,1,0,0,ansOne,,,,,,,,,,,,,,,,,1,2022-11-01_20h54.34.424,musicalMathTest,2022.2.0,59.95502174
music\active\vocals\Soda Pop (feat. Hot Air Balloon) (90) by Stony Pony.wav,soda pop,active,vocals,1,90,A,multiply,10,18,180,186,185,187,0,4,4,5,0,22,22,104,,,,,,,,,,,,,,,,,,,,,,,,,,,,,,,471.8445171,471.8445171,471.8445171,471.8445171,471.8445171,0.0043357,471.8445171,TRUE,0.111111111,-0.407407407,1,0,0,ansThree,,,,,,,,,,,,,,,,,1,2022-11-01_20h54.34.424,musicalMathTest,2022.2.0,59.95502174
music\active\vocals\Soda Pop (feat. Hot Air Balloon) (90) by Stony Pony.wav,soda pop,active,vocals,1,90,A,subtract,51,49,2,5,9,3,0,4,4,5,0,23,23,41,,,,,,,,,,,,,,,,,,,,,,,,,,,,,,,474.6778491,474.6778491,474.6778491,474.6778491,474.6778491,0.0040712,474.6778491,TRUE,-0.094444444,-0.39537037,1,0,0,ansTwo,,,,,,,,,,,,,,,,,1,2022-11-01_20h54.34.424,musicalMathTest,2022.2.0,59.95502174
music\active\vocals\Soda Pop (feat. Hot Air Balloon) (90) by Stony Pony.wav,soda pop,active,vocals,1,90,A,multiply,12,10,120,124,125,126,0,4,4,5,0,24,24,90,,,,,,,,,,,,,,,,,,,,,,,,,,,,,,,476.7278671,476.7278671,476.7278671,476.7278671,476.7278671,0.0042527,476.7278671,TRUE,-0.318518519,-0.398148148,1,0,0,ansOne,,,,,,,,,,,,,,,,,1,2022-11-01_20h54.34.424,musicalMathTest,2022.2.0,59.95502174
music\active\vocals\Soda Pop (feat. Hot Air Balloon) (90) by Stony Pony.wav,soda pop,active,vocals,1,90,A,multiply,21,5,105,107,109,113,0,4,4,5,0,25,25,85,,,,,,,,,,,,,,,,,,,,,,,,,,,,,,,477.6611994,477.6611994,477.6611994,477.6611994,477.6611994,0.0040906,477.6611994,TRUE,-0.299074074,-0.401851852,1,0,0,ansOne,,,,,,,,,,,,,,,,,1,2022-11-01_20h54.34.424,musicalMathTest,2022.2.0,59.95502174
music\active\vocals\Soda Pop (feat. Hot Air Balloon) (90) by Stony Pony.wav,soda pop,active,vocals,1,90,A,add,49,48,97,105,99,101,0,4,4,5,0,26,26,23,,,,,,,,,,,,,,,,,,,,,,,,,,,,,,,479.9445471,479.9445471,479.9445471,479.9445471,479.9445471,0.0045349,479.9445471,TRUE,-0.296296296,-0.4,1,0,0,ansOne,,,,,,,,,,,,,,,,,1,2022-11-01_20h54.34.424,musicalMathTest,2022.2.0,59.95502174
music\active\vocals\Soda Pop (feat. Hot Air Balloon) (90) by Stony Pony.wav,soda pop,active,vocals,1,90,A,multiply,10,21,210,215,220,224,0,4,4,5,0,27,27,81,,,,,,,,,,,,,,,,,,,,,,,,,,,,,,,482.7279011,482.7279011,482.7279011,482.7279011,482.7279011,0.0040499,482.7279011,TRUE,-0.112037037,-0.400925926,1,0,0,ansTwo,,,,,,,,,,,,,,,,,1,2022-11-01_20h54.34.424,musicalMathTest,2022.2.0,59.95502174
music\active\vocals\Soda Pop (feat. Hot Air Balloon) (90) by Stony Pony.wav,soda pop,active,vocals,1,90,A,subtract,48,48,0,6,8,4,0,4,4,5,0,28,28,58,,,,,,,,,,,,,,,,,,,,,,,,,,,,,,,485.2445841,485.2445841,485.2445841,485.2445841,485.2445841,0.0040745,485.2445841,TRUE,-0.300925926,-0.391666667,1,0,0,ansOne,,,,,,,,,,,,,,,,,1,2022-11-01_20h54.34.424,musicalMathTest,2022.2.0,59.95502174
music\active\vocals\Soda Pop (feat. Hot Air Balloon) (90) by Stony Pony.wav,soda pop,active,vocals,1,90,A,multiply,21,5,105,106,109,110,0,4,4,5,0,29,29,101,,,,,,,,,,,,,,,,,,,,,,,,,,,,,,,486.4612539,486.4612539,486.4612539,486.4612539,486.4612539,0.0041923,486.4612539,TRUE,-0.313888889,-0.389814815,1,0,0,ansOne,,,,,,,,,,,,,,,,,1,2022-11-01_20h54.34.424,musicalMathTest,2022.2.0,59.95502174
music\active\vocals\Soda Pop (feat. Hot Air Balloon) (90) by Stony Pony.wav,soda pop,active,vocals,1,90,A,subtract,43,22,21,27,28,32,0,4,4,5,0,30,30,55,,,,,,,,,,,,,,,,,,,,,,,,,,,,,,,488.4446114,488.4446114,488.4446114,488.4446114,488.4446114,0.0045975,488.4446114,TRUE,-0.308333333,-0.409259259,1,0,0,ansOne,,,,,,,,,,,,,,,,,1,2022-11-01_20h54.34.424,musicalMathTest,2022.2.0,59.95502174
music\active\vocals\Soda Pop (feat. Hot Air Balloon) (90) by Stony Pony.wav,soda pop,active,vocals,1,90,A,add,48,43,91,99,95,92,0,4,4,5,0,31,31,15,,,,,,,,,,,,,,,,,,,,,,,,,,,,,,,492.0446658,492.0446658,492.0446658,492.0446658,492.0446658,0.0040328,492.0446658,TRUE,-0.306481481,-0.403703704,1,0,0,ansOne,,,,,,,,,,,,,,,,,1,2022-11-01_20h54.34.424,musicalMathTest,2022.2.0,59.95502174
music\active\vocals\Soda Pop (feat. Hot Air Balloon) (90) by Stony Pony.wav,soda pop,active,vocals,1,90,A,add,43,22,65,66,71,67,0,4,4,5,0,32,32,24,,,,,,,,,,,,,,,,,,,,,,,,,,,,,,,494.677997,494.677997,494.677997,494.677997,494.677997,0.0041499,494.677997,TRUE,-0.110185185,-0.396296296,1,0,0,ansTwo,,,,,,,,,,,,,,,,,1,2022-11-01_20h54.34.424,musicalMathTest,2022.2.0,59.95502174
music\active\vocals\Soda Pop (feat. Hot Air Balloon) (90) by Stony Pony.wav,soda pop,active,vocals,1,90,A,multiply,10,12,120,125,126,128,0,4,4,5,0,33,33,62,,,,,,,,,,,,,,,,,,,,,,,,,,,,,,,498.0947193,498.0947193,498.0947193,498.0947193,498.0947193,0.0039986,498.0947193,TRUE,-0.306481481,-0.40462963,1,0,0,ansOne,,,,,,,,,,,,,,,,,1,2022-11-01_20h54.34.424,musicalMathTest,2022.2.0,59.95502174
music\active\vocals\Soda Pop (feat. Hot Air Balloon) (90) by Stony Pony.wav,soda pop,active,vocals,1,90,A,multiply,10,2,20,25,30,25,0,4,4,5,0,34,34,79,,,,,,,,,,,,,,,,,,,,,,,,,,,,,,,500.0446699,500.0446699,500.0446699,500.0446699,500.0446699,0.0044167,500.0446699,TRUE,0.103703704,-0.412037037,1,0,0,ansThree,,,,,,,,,,,,,,,,,1,2022-11-01_20h54.34.424,musicalMathTest,2022.2.0,59.95502174
music\active\vocals\Soda Pop (feat. Hot Air Balloon) (90) by Stony Pony.wav,soda pop,active,vocals,1,90,A,subtract,43,28,15,22,21,19,0,4,4,5,0,35,35,49,,,,,,,,,,,,,,,,,,,,,,,,,,,,,,,501.9780604,501.9780604,501.9780604,501.9780604,501.9780604,0.0040943,501.9780604,TRUE,0.113888889,-0.408333333,1,0,0,ansThree,,,,,,,,,,,,,,,,,1,2022-11-01_20h54.34.424,musicalMathTest,2022.2.0,59.95502174
music\active\vocals\Soda Pop (feat. Hot Air Balloon) (90) by Stony Pony.wav,soda pop,active,vocals,1,90,A,subtract,48,43,5,8,10,11,0,4,4,5,0,36,36,39,,,,,,,,,,,,,,,,,,,,,,,,,,,,,,,509.7447594,509.7447594,509.7447594,509.7447594,509.7447594,0.0041797,509.7447594,TRUE,-0.300925926,-0.397222222,1,0,0,ansOne,,,,,,,,,,,,,,,,,1,2022-11-01_20h54.34.424,musicalMathTest,2022.2.0,59.95502174
music\active\instrumentals\Believe It (90) (Instrumental) by Ty Magenta.wav,believe it,active,instrumental,1,90,A,subtract,46,34,12,2,15,13,0,5,5,0,0,0,0,33,,,,,,,,,,,,,,,,,,,,,,,,517.9948063,0.0036206,-0.011111111,-0.266666667,1,0,0,518.9948482,518.9948482,518.9948482,518.9948482,518.9948482,0.0160486,518.9948482,FALSE,-0.293518519,-0.411111111,1,0,0,ansOne,512.9947973,517.9948063,,,,,,,,,,,,,,,1,2022-11-01_20h54.34.424,musicalMathTest,2022.2.0,59.95502174
music\active\instrumentals\Believe It (90) (Instrumental) by Ty Magenta.wav,believe it,active,instrumental,1,90,A,multiply,10,10,100,104,101,103,0,5,5,0,0,1,1,90,,,,,,,,,,,,,,,,,,,,,,,,,,,,,,,523.2615222,523.2615222,523.2615222,523.2615222,523.2615222,0.0041195,523.2615222,TRUE,0.10462963,-0.396296296,1,0,0,ansThree,,,,,,,,,,,,,,,,,1,2022-11-01_20h54.34.424,musicalMathTest,2022.2.0,59.95502174
music\active\instrumentals\Believe It (90) (Instrumental) by Ty Magenta.wav,believe it,active,instrumental,1,90,A,add,47,12,59,63,67,64,0,5,5,0,0,2,2,0,,,,,,,,,,,,,,,,,,,,,,,,,,,,,,,525.2615416,525.2615416,525.2615416,525.2615416,525.2615416,0.0041415,525.2615416,TRUE,-0.110185185,-0.39537037,1,0,0,ansTwo,,,,,,,,,,,,,,,,,1,2022-11-01_20h54.34.424,musicalMathTest,2022.2.0,59.95502174
music\active\instrumentals\Believe It (90) (Instrumental) by Ty Magenta.wav,believe it,active,instrumental,1,90,A,add,47,33,80,83,81,87,0,5,5,0,0,3,3,4,,,,,,,,,,,,,,,,,,,,,,,,,,,,,,,529.3948887,529.3948887,529.3948887,529.3948887,529.3948887,0.0041398,529.3948887,TRUE,-0.107407407,-0.401851852,1,0,0,ansTwo,,,,,,,,,,,,,,,,,1,2022-11-01_20h54.34.424,musicalMathTest,2022.2.0,59.95502174
music\active\instrumentals\Believe It (90) (Instrumental) by Ty Magenta.wav,believe it,active,instrumental,1,90,A,multiply,20,10,200,208,201,208,0,5,5,0,0,4,4,67,,,,,,,,,,,,,,,,,,,,,,,,,,,,,,,532.8782688,532.8782688,532.8782688,532.8782688,532.8782688,0.0043368,532.8782688,TRUE,-0.308333333,-0.408333333,1,0,0,ansOne,,,,,,,,,,,,,,,,,1,2022-11-01_20h54.34.424,musicalMathTest,2022.2.0,59.95502174
music\active\instrumentals\Believe It (90) (Instrumental) by Ty Magenta.wav,believe it,active,instrumental,1,90,A,add,59,46,105,112,107,113,0,5,5,0,0,5,5,22,,,,,,,,,,,,,,,,,,,,,,,,,,,,,,,533.9949318,533.9949318,533.9949318,533.9949318,533.9949318,0.0040489,533.9949318,TRUE,-0.288888889,-0.403703704,1,0,0,ansOne,,,,,,,,,,,,,,,,,1,2022-11-01_20h54.34.424,musicalMathTest,2022.2.0,59.95502174
music\active\instrumentals\Believe It (90) (Instrumental) by Ty Magenta.wav,believe it,active,instrumental,1,90,A,multiply,20,10,200,202,206,204,0,5,5,0,0,6,6,91,,,,,,,,,,,,,,,,,,,,,,,,,,,,,,,537.7449539,537.7449539,537.7449539,537.7449539,537.7449539,0.0043068,537.7449539,TRUE,-0.092592593,-0.4,1,0,0,ansTwo,,,,,,,,,,,,,,,,,1,2022-11-01_20h54.34.424,musicalMathTest,2022.2.0,59.95502174
music\active\instrumentals\Believe It (90) (Instrumental) by Ty Magenta.wav,believe it,active,instrumental,1,90,A,add,63,59,122,125,132,126,0,5,5,0,0,7,7,6,,,,,,,,,,,,,,,,,,,,,,,,,,,,,,,539.2283185,539.2283185,539.2283185,539.2283185,539.2283185,0.0040777,539.2283185,TRUE,-0.1,-0.407407407,1,0,0,ansTwo,,,,,,,,,,,,,,,,,1,2022-11-01_20h54.34.424,musicalMathTest,2022.2.0,59.95502174
music\active\instrumentals\Believe It (90) (Instrumental) by Ty Magenta.wav,believe it,active,instrumental,1,90,A,add,41,33,74,82,75,76,0,5,5,0,0,8,8,1,,,,,,,,,,,,,,,,,,,,,,,,,,,,,,,544.0284277,544.0284277,544.0284277,544.0284277,544.0284277,0.004738,544.0284277,TRUE,0.114814815,-0.407407407,1,0,0,ansThree,,,,,,,,,,,,,,,,,1,2022-11-01_20h54.34.424,musicalMathTest,2022.2.0,59.95502174
music\active\instrumentals\Believe It (90) (Instrumental) by Ty Magenta.wav,believe it,active,instrumental,1,90,A,add,46,12,58,66,61,59,0,5,5,0,0,9,9,10,,,,,,,,,,,,,,,,,,,,,,,,,,,,,,,546.9116904,546.9116904,546.9116904,546.9116904,546.9116904,0.004138,546.9116904,TRUE,-0.093518519,-0.401851852,1,0,0,ansTwo,,,,,,,,,,,,,,,,,1,2022-11-01_20h54.34.424,musicalMathTest,2022.2.0,59.95502174
music\active\instrumentals\Believe It (90) (Instrumental) by Ty Magenta.wav,believe it,active,instrumental,1,90,A,add,47,34,81,85,89,83,0,5,5,0,0,10,10,8,,,,,,,,,,,,,,,,,,,,,,,,,,,,,,,549.8450529,549.8450529,549.8450529,549.8450529,549.8450529,0.0041746,549.8450529,TRUE,-0.306481481,-0.410185185,1,0,0,ansOne,,,,,,,,,,,,,,,,,1,2022-11-01_20h54.34.424,musicalMathTest,2022.2.0,59.95502174
music\active\instrumentals\Believe It (90) (Instrumental) by Ty Magenta.wav,believe it,active,instrumental,1,90,A,add,51,12,63,64,70,64,0,5,5,0,0,11,11,7,,,,,,,,,,,,,,,,,,,,,,,,,,,,,,,552.9617165,552.9617165,552.9617165,552.9617165,552.9617165,0.004221,552.9617165,TRUE,0.093518519,-0.394444444,1,0,0,ansThree,,,,,,,,,,,,,,,,,1,2022-11-01_20h54.34.424,musicalMathTest,2022.2.0,59.95502174
music\active\instrumentals\Believe It (90) (Instrumental) by Ty Magenta.wav,believe it,active,instrumental,1,90,A,multiply,20,5,100,106,108,105,0,5,5,0,0,12,12,83,,,,,,,,,,,,,,,,,,,,,,,,,,,,,,,555.278411,555.278411,555.278411,555.278411,555.278411,0.0045236,555.278411,TRUE,-0.084259259,-0.398148148,1,0,0,ansTwo,,,,,,,,,,,,,,,,,1,2022-11-01_20h54.34.424,musicalMathTest,2022.2.0,59.95502174
music\active\instrumentals\Believe It (90) (Instrumental) by Ty Magenta.wav,believe it,active,instrumental,1,90,A,subtract,47,34,13,16,15,18,0,5,5,0,0,13,13,39,,,,,,,,,,,,,,,,,,,,,,,,,,,,,,,557.0284344,557.0284344,557.0284344,557.0284344,557.0284344,0.0041128,557.0284344,TRUE,-0.093518519,-0.399074074,1,0,0,ansTwo,,,,,,,,,,,,,,,,,1,2022-11-01_20h54.34.424,musicalMathTest,2022.2.0,59.95502174
music\active\instrumentals\Believe It (90) (Instrumental) by Ty Magenta.wav,believe it,active,instrumental,1,90,A,add,60,59,119,124,127,124,0,5,5,0,0,14,14,3,,,,,,,,,,,,,,,,,,,,,,,,,,,,,,,560.6951251,560.6951251,560.6951251,560.6951251,560.6951251,0.0477261,560.6951251,TRUE,0.109259259,-0.411111111,1,0,0,ansThree,,,,,,,,,,,,,,,,,1,2022-11-01_20h54.34.424,musicalMathTest,2022.2.0,59.95502174
music\active\instrumentals\Believe It (90) (Instrumental) by Ty Magenta.wav,believe it,active,instrumental,1,90,A,multiply,20,5,100,101,104,108,0,5,5,0,0,15,15,99,,,,,,,,,,,,,,,,,,,,,,,,,,,,,,,562.6951198,562.6951198,562.6951198,562.6951198,562.6951198,0.0043617,562.6951198,TRUE,0.098148148,-0.414814815,1,0,0,ansThree,,,,,,,,,,,,,,,,,1,2022-11-01_20h54.34.424,musicalMathTest,2022.2.0,59.95502174
music\active\instrumentals\Believe It (90) (Instrumental) by Ty Magenta.wav,believe it,active,instrumental,1,90,A,subtract,41,33,8,16,12,16,0,5,5,0,0,16,16,32,,,,,,,,,,,,,,,,,,,,,,,,,,,,,,,564.8284671,564.8284671,564.8284671,564.8284671,564.8284671,0.0042162,564.8284671,TRUE,-0.303703704,-0.4,1,0,0,ansOne,,,,,,,,,,,,,,,,,1,2022-11-01_20h54.34.424,musicalMathTest,2022.2.0,59.95502174
music\active\instrumentals\Believe It (90) (Instrumental) by Ty Magenta.wav,believe it,active,instrumental,1,90,A,subtract,50,46,4,9,8,9,0,5,5,0,0,17,17,49,,,,,,,,,,,,,,,,,,,,,,,,,,,,,,,568.3118419,568.3118419,568.3118419,568.3118419,568.3118419,0.0041242,568.3118419,TRUE,0.09537037,-0.390740741,1,0,0,ansThree,,,,,,,,,,,,,,,,,1,2022-11-01_20h54.34.424,musicalMathTest,2022.2.0,59.95502174
music\active\instrumentals\Believe It (90) (Instrumental) by Ty Magenta.wav,believe it,active,instrumental,1,90,A,multiply,13,5,65,71,73,66,0,5,5,0,0,18,18,85,,,,,,,,,,,,,,,,,,,,,,,,,,,,,,,570.0785259,570.0785259,570.0785259,570.0785259,570.0785259,0.0045631,570.0785259,TRUE,-0.106481481,-0.399074074,1,0,0,ansTwo,,,,,,,,,,,,,,,,,1,2022-11-01_20h54.34.424,musicalMathTest,2022.2.0,59.95502174
music\active\instrumentals\Believe It (90) (Instrumental) by Ty Magenta.wav,believe it,active,instrumental,1,90,A,add,61,59,120,121,122,124,0,5,5,0,0,19,19,9,,,,,,,,,,,,,,,,,,,,,,,,,,,,,,,572.8618848,572.8618848,572.8618848,572.8618848,572.8618848,0.0040954,572.8618848,TRUE,0.117592593,-0.399074074,1,0,0,ansThree,,,,,,,,,,,,,,,,,1,2022-11-01_20h54.34.424,musicalMathTest,2022.2.0,59.95502174
music\active\instrumentals\Believe It (90) (Instrumental) by Ty Magenta.wav,believe it,active,instrumental,1,90,A,add,52,51,103,104,107,108,0,5,5,0,0,20,20,23,,,,,,,,,,,,,,,,,,,,,,,,,,,,,,,575.4786031,575.4786031,575.4786031,575.4786031,575.4786031,0.0042697,575.4786031,TRUE,-0.299074074,-0.403703704,1,0,0,ansOne,,,,,,,,,,,,,,,,,1,2022-11-01_20h54.34.424,musicalMathTest,2022.2.0,59.95502174
music\active\instrumentals\Believe It (90) (Instrumental) by Ty Magenta.wav,believe it,active,instrumental,1,90,A,subtract,51,33,18,20,26,22,0,5,5,0,0,21,21,42,,,,,,,,,,,,,,,,,,,,,,,,,,,,,,,577.8119043,577.8119043,577.8119043,577.8119043,577.8119043,0.0040183,577.8119043,TRUE,-0.087037037,-0.40462963,1,0,0,ansTwo,,,,,,,,,,,,,,,,,1,2022-11-01_20h54.34.424,musicalMathTest,2022.2.0,59.95502174
music\active\instrumentals\Believe It (90) (Instrumental) by Ty Magenta.wav,believe it,active,instrumental,1,90,A,subtract,59,51,8,10,13,16,0,5,5,0,0,22,22,50,,,,,,,,,,,,,,,,,,,,,,,,,,,,,,,583.5119834,583.5119834,583.5119834,583.5119834,583.5119834,0.0043447,583.5119834,TRUE,-0.29537037,-0.399074074,1,0,0,ansOne,,,,,,,,,,,,,,,,,1,2022-11-01_20h54.34.424,musicalMathTest,2022.2.0,59.95502174
music\active\instrumentals\Believe It (90) (Instrumental) by Ty Magenta.wav,believe it,active,instrumental,1,90,A,multiply,13,10,130,133,134,137,0,5,5,0,0,23,23,109,,,,,,,,,,,,,,,,,,,,,,,,,,,,,,,587.0453211,587.0453211,587.0453211,587.0453211,587.0453211,0.0040559,587.0453211,TRUE,0.092592593,-0.398148148,1,0,0,ansThree,,,,,,,,,,,,,,,,,1,2022-11-01_20h54.34.424,musicalMathTest,2022.2.0,59.95502174
music\active\instrumentals\Believe It (90) (Instrumental) by Ty Magenta.wav,believe it,active,instrumental,1,90,A,multiply,10,20,200,204,208,203,0,5,5,0,0,24,24,103,,,,,,,,,,,,,,,,,,,,,,,,,,,,,,,589.0953024,589.0953024,589.0953024,589.0953024,589.0953024,0.0043633,589.0953024,TRUE,0.085185185,-0.39537037,1,0,0,ansThree,,,,,,,,,,,,,,,,,1,2022-11-01_20h54.34.424,musicalMathTest,2022.2.0,59.95502174
music\active\instrumentals\Believe It (90) (Instrumental) by Ty Magenta.wav,believe it,active,instrumental,1,90,A,multiply,20,10,200,205,210,208,0,5,5,0,0,25,25,107,,,,,,,,,,,,,,,,,,,,,,,,,,,,,,,590.3952601,590.3952601,590.3952601,590.3952601,590.3952601,0.0040441,590.3952601,TRUE,-0.101851852,-0.400925926,1,0,0,ansTwo,,,,,,,,,,,,,,,,,1,2022-11-01_20h54.34.424,musicalMathTest,2022.2.0,59.95502174
music\active\instrumentals\Believe It (90) (Instrumental) by Ty Magenta.wav,believe it,active,instrumental,1,90,A,multiply,2,10,20,27,23,28,0,5,5,0,0,26,26,86,,,,,,,,,,,,,,,,,,,,,,,,,,,,,,,591.7120113,591.7120113,591.7120113,591.7120113,591.7120113,0.0041627,591.7120113,TRUE,-0.305555556,-0.393518519,1,0,0,ansOne,,,,,,,,,,,,,,,,,1,2022-11-01_20h54.34.424,musicalMathTest,2022.2.0,59.95502174
music\active\instrumentals\Believe It (90) (Instrumental) by Ty Magenta.wav,believe it,active,instrumental,1,90,A,subtract,51,47,4,12,7,11,0,5,5,0,0,27,27,51,,,,,,,,,,,,,,,,,,,,,,,,,,,,,,,594.4620155,594.4620155,594.4620155,594.4620155,594.4620155,0.0039175,594.4620155,TRUE,0.10462963,-0.412037037,1,0,0,ansThree,,,,,,,,,,,,,,,,,1,2022-11-01_20h54.34.424,musicalMathTest,2022.2.0,59.95502174
music\active\instrumentals\Believe It (90) (Instrumental) by Ty Magenta.wav,believe it,active,instrumental,1,90,A,subtract,50,46,4,11,6,8,0,5,5,0,0,28,28,57,,,,,,,,,,,,,,,,,,,,,,,,,,,,,,,596.745347,596.745347,596.745347,596.745347,596.745347,0.0040877,596.745347,TRUE,-0.096296296,-0.4,1,0,0,ansTwo,,,,,,,,,,,,,,,,,1,2022-11-01_20h54.34.424,musicalMathTest,2022.2.0,59.95502174
music\active\instrumentals\Believe It (90) (Instrumental) by Ty Magenta.wav,believe it,active,instrumental,1,90,A,multiply,10,7,70,76,72,73,0,5,5,0,0,29,29,104,,,,,,,,,,,,,,,,,,,,,,,,,,,,,,,598.8620437,598.8620437,598.8620437,598.8620437,598.8620437,0.0039374,598.8620437,TRUE,-0.303703704,-0.396296296,1,0,0,ansOne,,,,,,,,,,,,,,,,,1,2022-11-01_20h54.34.424,musicalMathTest,2022.2.0,59.95502174
music\active\instrumentals\Believe It (90) (Instrumental) by Ty Magenta.wav,believe it,active,instrumental,1,90,A,multiply,5,10,50,54,53,54,0,5,5,0,0,30,30,70,,,,,,,,,,,,,,,,,,,,,,,,,,,,,,,600.0954043,600.0954043,600.0954043,600.0954043,600.0954043,0.0042158,600.0954043,TRUE,0.100925926,-0.397222222,1,0,0,ansThree,,,,,,,,,,,,,,,,,1,2022-11-01_20h54.34.424,musicalMathTest,2022.2.0,59.95502174
music\active\instrumentals\Believe It (90) (Instrumental) by Ty Magenta.wav,believe it,active,instrumental,1,90,A,subtract,46,41,5,10,11,15,0,5,5,0,0,31,31,52,,,,,,,,,,,,,,,,,,,,,,,,,,,,,,,601.4120586,601.4120586,601.4120586,601.4120586,601.4120586,0.0041463,601.4120586,TRUE,-0.107407407,-0.4,1,0,0,ansTwo,,,,,,,,,,,,,,,,,1,2022-11-01_20h54.34.424,musicalMathTest,2022.2.0,59.95502174
music\active\instrumentals\Believe It (90) (Instrumental) by Ty Magenta.wav,believe it,active,instrumental,1,90,A,add,42,41,83,85,90,91,0,5,5,0,0,32,32,29,,,,,,,,,,,,,,,,,,,,,,,,,,,,,,,603.1120483,603.1120483,603.1120483,603.1120483,603.1120483,0.0047435,603.1120483,TRUE,0.103703704,-0.4,1,0,0,ansThree,,,,,,,,,,,,,,,,,1,2022-11-01_20h54.34.424,musicalMathTest,2022.2.0,59.95502174
music\active\instrumentals\Believe It (90) (Instrumental) by Ty Magenta.wav,believe it,active,instrumental,1,90,A,multiply,10,20,200,204,201,205,0,5,5,0,0,33,33,79,,,,,,,,,,,,,,,,,,,,,,,,,,,,,,,605.8954236,605.8954236,605.8954236,605.8954236,605.8954236,0.0040315,605.8954236,TRUE,0.110185185,-0.4,1,0,0,ansThree,,,,,,,,,,,,,,,,,1,2022-11-01_20h54.34.424,musicalMathTest,2022.2.0,59.95502174
music\active\instrumentals\Believe It (90) (Instrumental) by Ty Magenta.wav,believe it,active,instrumental,1,90,A,multiply,10,10,100,101,105,106,0,5,5,0,0,34,34,94,,,,,,,,,,,,,,,,,,,,,,,,,,,,,,,607.2787868,607.2787868,607.2787868,607.2787868,607.2787868,0.004292,607.2787868,TRUE,0.088888889,-0.405555556,1,0,0,ansThree,,,,,,,,,,,,,,,,,1,2022-11-01_20h54.34.424,musicalMathTest,2022.2.0,59.95502174
music\active\instrumentals\Believe It (90) (Instrumental) by Ty Magenta.wav,believe it,active,instrumental,1,90,A,subtract,59,41,18,25,26,22,0,5,5,0,0,35,35,56,,,,,,,,,,,,,,,,,,,,,,,,,,,,,,,608.5954397,608.5954397,608.5954397,608.5954397,608.5954397,0.0040684,608.5954397,TRUE,0.099074074,-0.405555556,1,0,0,ansThree,,,,,,,,,,,,,,,,,1,2022-11-01_20h54.34.424,musicalMathTest,2022.2.0,59.95502174
music\silence.wav,silent,silent,silent,1,90,A,subtract,44,26,18,22,25,8,0,6,6,4,0,0,0,49,,,,,,,,,,,,,,,,,,,,,,,,617.6288408,0.0035736,0.039814815,-0.164814815,1,0,0,620.6955348,620.6955348,620.6955348,620.6955348,620.6955348,0.012142,620.6955348,TRUE,-0.30462963,-0.411111111,1,0,0,ansOne,612.6288092,617.6288408,,,,,,,,,,,,,,,1,2022-11-01_20h54.34.424,musicalMathTest,2022.2.0,59.95502174
music\silence.wav,silent,silent,silent,1,90,A,subtract,58,54,4,9,8,7,0,6,6,4,0,1,1,37,,,,,,,,,,,,,,,,,,,,,,,,,,,,,,,626.9955877,626.9955877,626.9955877,626.9955877,626.9955877,0.0039819,626.9955877,TRUE,0.102777778,-0.400925926,1,0,0,ansThree,,,,,,,,,,,,,,,,,1,2022-11-01_20h54.34.424,musicalMathTest,2022.2.0,59.95502174
music\silence.wav,silent,silent,silent,1,90,A,add,58,26,84,87,91,95,0,6,6,4,0,2,2,26,,,,,,,,,,,,,,,,,,,,,,,,,,,,,,,628.7622391,628.7622391,628.7622391,628.7622391,628.7622391,0.0044241,628.7622391,TRUE,-0.294444444,-0.401851852,1,0,0,ansOne,,,,,,,,,,,,,,,,,1,2022-11-01_20h54.34.424,musicalMathTest,2022.2.0,59.95502174
music\silence.wav,silent,silent,silent,1,90,A,add,57,54,111,115,118,112,0,6,6,4,0,3,3,9,,,,,,,,,,,,,,,,,,,,,,,,,,,,,,,632.3456191,632.3456191,632.3456191,632.3456191,632.3456191,0.0041851,632.3456191,TRUE,-0.3,-0.406481481,1,0,0,ansOne,,,,,,,,,,,,,,,,,1,2022-11-01_20h54.34.424,musicalMathTest,2022.2.0,59.95502174
music\silence.wav,silent,silent,silent,1,90,A,add,54,26,80,81,83,87,0,6,6,4,0,4,4,22,,,,,,,,,,,,,,,,,,,,,,,,,,,,,,,635.8956343,635.8956343,635.8956343,635.8956343,635.8956343,0.0041662,635.8956343,TRUE,-0.309259259,-0.398148148,1,0,0,ansOne,,,,,,,,,,,,,,,,,1,2022-11-01_20h54.34.424,musicalMathTest,2022.2.0,59.95502174
music\silence.wav,silent,silent,silent,1,90,A,subtract,53,11,42,49,45,46,0,6,6,4,0,5,5,48,,,,,,,,,,,,,,,,,,,,,,,,,,,,,,,641.3123584,641.3123584,641.3123584,641.3123584,641.3123584,0.0039894,641.3123584,TRUE,-0.100925926,-0.408333333,1,0,0,ansTwo,,,,,,,,,,,,,,,,,1,2022-11-01_20h54.34.424,musicalMathTest,2022.2.0,59.95502174
music\silence.wav,silent,silent,silent,1,90,A,subtract,46,44,2,4,7,4,0,6,6,4,0,6,6,39,,,,,,,,,,,,,,,,,,,,,,,,,,,,,,,646.5290558,646.5290558,646.5290558,646.5290558,646.5290558,0.0042173,646.5290558,TRUE,0.101851852,-0.402777778,1,0,0,ansThree,,,,,,,,,,,,,,,,,1,2022-11-01_20h54.34.424,musicalMathTest,2022.2.0,59.95502174
music\silence.wav,silent,silent,silent,1,90,A,multiply,10,11,110,114,116,120,0,6,6,4,0,7,7,65,,,,,,,,,,,,,,,,,,,,,,,,,,,,,,,648.7623913,648.7623913,648.7623913,648.7623913,648.7623913,0.0041525,648.7623913,TRUE,0.103703704,-0.401851852,1,0,0,ansThree,,,,,,,,,,,,,,,,,1,2022-11-01_20h54.34.424,musicalMathTest,2022.2.0,59.95502174
music\silence.wav,silent,silent,silent,1,90,A,add,63,58,121,127,129,133,0,6,6,4,0,8,8,10,,,,,,,,,,,,,,,,,,,,,,,,,,,,,,,649.9457141,649.9457141,649.9457141,649.9457141,649.9457141,0.004273,649.9457141,TRUE,-0.314814815,-0.397222222,1,0,0,ansOne,,,,,,,,,,,,,,,,,1,2022-11-01_20h54.34.424,musicalMathTest,2022.2.0,59.95502174
music\silence.wav,silent,silent,silent,1,90,A,multiply,10,11,110,115,118,115,0,6,6,4,0,9,9,97,,,,,,,,,,,,,,,,,,,,,,,,,,,,,,,653.4957644,653.4957644,653.4957644,653.4957644,653.4957644,0.0040768,653.4957644,TRUE,-0.111111111,-0.403703704,1,0,0,ansTwo,,,,,,,,,,,,,,,,,1,2022-11-01_20h54.34.424,musicalMathTest,2022.2.0,59.95502174
music\silence.wav,silent,silent,silent,1,90,A,multiply,11,2,22,29,26,27,0,6,6,4,0,10,10,117,,,,,,,,,,,,,,,,,,,,,,,,,,,,,,,655.2457611,655.2457611,655.2457611,655.2457611,655.2457611,0.0042532,655.2457611,TRUE,-0.088888889,-0.399074074,1,0,0,ansTwo,,,,,,,,,,,,,,,,,1,2022-11-01_20h54.34.424,musicalMathTest,2022.2.0,59.95502174
music\silence.wav,silent,silent,silent,1,90,A,subtract,58,11,47,50,49,37,0,6,6,4,0,11,11,60,,,,,,,,,,,,,,,,,,,,,,,,,,,,,,,656.6791043,656.6791043,656.6791043,656.6791043,656.6791043,0.0040144,656.6791043,TRUE,0.101851852,-0.397222222,1,0,0,ansThree,,,,,,,,,,,,,,,,,1,2022-11-01_20h54.34.424,musicalMathTest,2022.2.0,59.95502174
music\silence.wav,silent,silent,silent,1,90,A,add,53,13,66,72,70,74,0,6,6,4,0,12,12,27,,,,,,,,,,,,,,,,,,,,,,,,,,,,,,,658.879144,658.879144,658.879144,658.879144,658.879144,0.0042421,658.879144,TRUE,-0.101851852,-0.400925926,1,0,0,ansTwo,,,,,,,,,,,,,,,,,1,2022-11-01_20h54.34.424,musicalMathTest,2022.2.0,59.95502174
music\silence.wav,silent,silent,silent,1,90,A,multiply,6,10,60,61,68,70,0,6,6,4,0,13,13,75,,,,,,,,,,,,,,,,,,,,,,,,,,,,,,,660.9291406,660.9291406,660.9291406,660.9291406,660.9291406,0.0040155,660.9291406,TRUE,0.111111111,-0.403703704,1,0,0,ansThree,,,,,,,,,,,,,,,,,1,2022-11-01_20h54.34.424,musicalMathTest,2022.2.0,59.95502174
music\silence.wav,silent,silent,silent,1,90,A,add,58,13,71,79,76,80,0,6,6,4,0,14,14,23,,,,,,,,,,,,,,,,,,,,,,,,,,,,,,,662.5124999,662.5124999,662.5124999,662.5124999,662.5124999,0.0041607,662.5124999,TRUE,-0.092592593,-0.405555556,1,0,0,ansTwo,,,,,,,,,,,,,,,,,1,2022-11-01_20h54.34.424,musicalMathTest,2022.2.0,59.95502174
music\silence.wav,silent,silent,silent,1,90,A,add,54,54,108,111,113,117,0,6,6,4,0,15,15,12,,,,,,,,,,,,,,,,,,,,,,,,,,,,,,,664.1958368,664.1958368,664.1958368,664.1958368,664.1958368,0.0041701,664.1958368,TRUE,0.091666667,-0.400925926,1,0,0,ansThree,,,,,,,,,,,,,,,,,1,2022-11-01_20h54.34.424,musicalMathTest,2022.2.0,59.95502174
music\silence.wav,silent,silent,silent,1,90,A,subtract,44,44,0,1,2,3,0,6,6,4,0,16,16,46,,,,,,,,,,,,,,,,,,,,,,,,,,,,,,,666.3958438,666.3958438,666.3958438,666.3958438,666.3958438,0.0040765,666.3958438,TRUE,0.102777778,-0.4,1,0,0,ansThree,,,,,,,,,,,,,,,,,1,2022-11-01_20h54.34.424,musicalMathTest,2022.2.0,59.95502174
music\silence.wav,silent,silent,silent,1,90,A,add,58,21,79,85,82,83,0,6,6,4,0,17,17,16,,,,,,,,,,,,,,,,,,,,,,,,,,,,,,,668.0125598,668.0125598,668.0125598,668.0125598,668.0125598,0.0040337,668.0125598,TRUE,-0.093518519,-0.394444444,1,0,0,ansTwo,,,,,,,,,,,,,,,,,1,2022-11-01_20h54.34.424,musicalMathTest,2022.2.0,59.95502174
music\silence.wav,silent,silent,silent,1,90,A,multiply,10,19,190,195,191,195,0,6,6,4,0,18,18,104,,,,,,,,,,,,,,,,,,,,,,,,,,,,,,,670.2459476,670.2459476,670.2459476,670.2459476,670.2459476,0.0042954,670.2459476,TRUE,-0.283333333,-0.399074074,1,0,0,ansOne,,,,,,,,,,,,,,,,,1,2022-11-01_20h54.34.424,musicalMathTest,2022.2.0,59.95502174
music\silence.wav,silent,silent,silent,1,90,A,add,44,44,88,98,92,95,0,6,6,4,0,19,19,15,,,,,,,,,,,,,,,,,,,,,,,,,,,,,,,672.0459075,672.0459075,672.0459075,672.0459075,672.0459075,0.0039981,672.0459075,TRUE,-0.093518519,-0.400925926,1,0,0,ansTwo,,,,,,,,,,,,,,,,,1,2022-11-01_20h54.34.424,musicalMathTest,2022.2.0,59.95502174
music\silence.wav,silent,silent,silent,1,90,A,add,56,53,109,116,112,116,0,6,6,4,0,20,20,11,,,,,,,,,,,,,,,,,,,,,,,,,,,,,,,673.2125636,673.2125636,673.2125636,673.2125636,673.2125636,0.0042585,673.2125636,TRUE,-0.305555556,-0.394444444,1,0,0,ansOne,,,,,,,,,,,,,,,,,1,2022-11-01_20h54.34.424,musicalMathTest,2022.2.0,59.95502174
music\silence.wav,silent,silent,silent,1,90,A,multiply,6,10,60,67,62,66,0,6,6,4,0,21,21,107,,,,,,,,,,,,,,,,,,,,,,,,,,,,,,,676.4792558,676.4792558,676.4792558,676.4792558,676.4792558,0.0040147,676.4792558,TRUE,-0.291666667,-0.400925926,1,0,0,ansOne,,,,,,,,,,,,,,,,,1,2022-11-01_20h54.34.424,musicalMathTest,2022.2.0,59.95502174
music\silence.wav,silent,silent,silent,1,90,A,multiply,14,2,28,34,38,42,0,6,6,4,0,22,22,114,,,,,,,,,,,,,,,,,,,,,,,,,,,,,,,677.9125802,677.9125802,677.9125802,677.9125802,677.9125802,0.0043201,677.9125802,TRUE,-0.302777778,-0.4,1,0,0,ansOne,,,,,,,,,,,,,,,,,1,2022-11-01_20h54.34.424,musicalMathTest,2022.2.0,59.95502174
music\silence.wav,silent,silent,silent,1,90,A,subtract,44,11,33,39,23,37,0,6,6,4,0,23,23,52,,,,,,,,,,,,,,,,,,,,,,,,,,,,,,,679.7626107,679.7626107,679.7626107,679.7626107,679.7626107,0.0041868,679.7626107,TRUE,-0.081481481,-0.40462963,1,0,0,ansTwo,,,,,,,,,,,,,,,,,1,2022-11-01_20h54.34.424,musicalMathTest,2022.2.0,59.95502174
music\silence.wav,silent,silent,silent,1,90,A,multiply,6,2,12,14,18,22,0,6,6,4,0,24,24,115,,,,,,,,,,,,,,,,,,,,,,,,,,,,,,,681.7626205,681.7626205,681.7626205,681.7626205,681.7626205,0.0042203,681.7626205,TRUE,-0.294444444,-0.402777778,1,0,0,ansOne,,,,,,,,,,,,,,,,,1,2022-11-01_20h54.34.424,musicalMathTest,2022.2.0,59.95502174
music\silence.wav,silent,silent,silent,1,90,A,subtract,53,26,27,31,29,34,0,6,6,4,0,25,25,61,,,,,,,,,,,,,,,,,,,,,,,,,,,,,,,682.9959542,682.9959542,682.9959542,682.9959542,682.9959542,0.0040973,682.9959542,TRUE,-0.112037037,-0.4,1,0,0,ansTwo,,,,,,,,,,,,,,,,,1,2022-11-01_20h54.34.424,musicalMathTest,2022.2.0,59.95502174
music\silence.wav,silent,silent,silent,1,90,A,add,58,53,111,118,117,113,0,6,6,4,0,26,26,4,,,,,,,,,,,,,,,,,,,,,,,,,,,,,,,686.0126335,686.0126335,686.0126335,686.0126335,686.0126335,0.0044842,686.0126335,TRUE,-0.118518519,-0.391666667,1,0,0,ansTwo,,,,,,,,,,,,,,,,,1,2022-11-01_20h54.34.424,musicalMathTest,2022.2.0,59.95502174
music\silence.wav,silent,silent,silent,1,90,A,add,58,11,69,73,79,83,0,6,6,4,0,27,27,29,,,,,,,,,,,,,,,,,,,,,,,,,,,,,,,688.8459982,688.8459982,688.8459982,688.8459982,688.8459982,0.004205,688.8459982,FALSE,0.110185185,-0.407407407,1,0,0,ansThree,,,,,,,,,,,,,,,,,1,2022-11-01_20h54.34.424,musicalMathTest,2022.2.0,59.95502174
music\silence.wav,silent,silent,silent,1,90,A,multiply,5,14,70,77,74,75,0,6,6,4,0,28,28,110,,,,,,,,,,,,,,,,,,,,,,,,,,,,,,,691.396043,691.396043,691.396043,691.396043,691.396043,0.0041883,691.396043,TRUE,-0.307407407,-0.4,1,0,0,ansOne,,,,,,,,,,,,,,,,,1,2022-11-01_20h54.34.424,musicalMathTest,2022.2.0,59.95502174
music\silence.wav,silent,silent,silent,1,90,A,multiply,2,11,22,26,29,23,0,6,6,4,0,29,29,89,,,,,,,,,,,,,,,,,,,,,,,,,,,,,,,695.6460583,695.6460583,695.6460583,695.6460583,695.6460583,0.0041493,695.6460583,TRUE,-0.289814815,-0.399074074,1,0,0,ansOne,,,,,,,,,,,,,,,,,1,2022-11-01_20h54.34.424,musicalMathTest,2022.2.0,59.95502174
music\silence.wav,silent,silent,silent,1,90,A,subtract,54,26,28,18,33,37,0,6,6,4,0,30,30,53,,,,,,,,,,,,,,,,,,,,,,,,,,,,,,,697.1127107,697.1127107,697.1127107,697.1127107,697.1127107,0.004206,697.1127107,TRUE,0.087037037,-0.399074074,1,0,0,ansThree,,,,,,,,,,,,,,,,,1,2022-11-01_20h54.34.424,musicalMathTest,2022.2.0,59.95502174
music\silence.wav,silent,silent,silent,1,90,A,add,46,44,90,95,100,91,0,6,6,4,0,31,31,8,,,,,,,,,,,,,,,,,,,,,,,,,,,,,,,704.862768,704.862768,704.862768,704.862768,704.862768,0.0040262,704.862768,TRUE,-0.112962963,-0.396296296,1,0,0,ansTwo,,,,,,,,,,,,,,,,,1,2022-11-01_20h54.34.424,musicalMathTest,2022.2.0,59.95502174
