songfilename,SongName,Speed,Condition,fileblock,testdurationsec,CategoryType,NumOne,NumTwo,Correct,Incorrect1,Incorrect2,Incorrect3,musicTypeLoop.thisRepN,musicTypeLoop.thisTrialN,musicTypeLoop.thisN,musicTypeLoop.thisIndex,trialsMath.thisRepN,trialsMath.thisTrialN,trialsMath.thisN,trialsMath.thisIndex,partInfoImage.started,partinfomouse.started,partinfomouse.x,partinfomouse.y,partinfomouse.leftButton,partinfomouse.midButton,partinfomouse.rightButton,partInfoImage_2.started,partinfomouse_2.started,consentBox.started,partinfomouse_2.x,partinfomouse_2.y,partinfomouse_2.leftButton,partinfomouse_2.midButton,partinfomouse_2.rightButton,partinfomouse_2.clicked_name,partInfoImage_3.started,partinfomouse_3.started,partinfomouse_3.x,partinfomouse_3.y,partinfomouse_3.leftButton,partinfomouse_3.midButton,partinfomouse_3.rightButton,partInfoImage_4.started,partinfomouse_4.started,partinfomouse_4.x,partinfomouse_4.y,partinfomouse_4.leftButton,partinfomouse_4.midButton,partinfomouse_4.rightButton,question.started,ansOne.started,ansTwo.started,ansThree.started,ansFour.started,mouseclickResponse.started,debuginfo.started,correctClick,mouseclickResponse.x,mouseclickResponse.y,mouseclickResponse.leftButton,mouseclickResponse.midButton,mouseclickResponse.rightButton,mouseclickResponse.clicked_name,text.started,partInfoImage_5.started,partinfomouse_5.started,partinfomouse_5.x,partinfomouse_5.y,partinfomouse_5.leftButton,partinfomouse_5.midButton,partinfomouse_5.rightButton,partInfoImage_6.started,partinfomouse_6.started,partinfomouse_6.x,partinfomouse_6.y,partinfomouse_6.leftButton,partinfomouse_6.midButton,partinfomouse_6.rightButton,session,date,expName,psychopyVersion,frameRate,
,,,,,,,,,,,,,,,,,,,,,46.95097779999924,2.9200000426499173e-05,-0.06888888888888889,-0.14222222222222222,1,0,0,,,,,,,,,,,,,,,,,,,,,,,,,,,,,,,,,,,,,,,,,,,,,,,,,,,,,002,2022-11-01_15h27.43.086,musicalMathTest,2022.2.0,59.95998270690761,
,,,,,,,,,,,,,,,,,,,,,,,,,,,,53.53270729999713,2.2599997464567423e-05,53.53270729999713,0.3422222222222222,-0.44666666666666666,1,0,0,consentBox,,,,,,,,,,,,,,,,,,,,,,,,,,,,,,,,,,,,,,,,,,,,002,2022-11-01_15h27.43.086,musicalMathTest,2022.2.0,59.95998270690761,
,,,,,,,,,,,,,,,,,,,,,,,,,,,,,,,,,,,,,54.58235849999983,2.0299998141126707e-05,-0.07666666666666666,-0.07444444444444444,1,0,0,,,,,,,,,,,,,,,,,,,,,,,,,,,,,,,,,,,,,002,2022-11-01_15h27.43.086,musicalMathTest,2022.2.0,59.95998270690761,
music\calm\instrumentals\Brand New Feelings (90) (Instrumental) by Land of Legs.wav,brand new feelings,calm,instrumental,2,90,add,50,22,72,74,78,74,0,0,0,6,0,0,0,28,,,,,,,,,,,,,,,,,,,,,,,,62.32943439999872,0.04478190000008908,-0.057777777777777775,-0.06888888888888889,1,0,0,62.88547169999947,62.88547169999947,62.88547169999947,62.88547169999947,62.88547169999947,0.08560950000173762,62.88547169999947,True,-0.10333333333333333,-0.4077777777777778,1,0,0,ansTwo,,,,,,,,,,,,,,,,002,2022-11-01_15h27.43.086,musicalMathTest,2022.2.0,59.95998270690761,
music\calm\instrumentals\Brand New Feelings (90) (Instrumental) by Land of Legs.wav,brand new feelings,calm,instrumental,2,90,add,49,25,74,77,84,80,0,0,0,6,0,1,1,29,,,,,,,,,,,,,,,,,,,,,,,,,,,,,,,66.78080789999876,66.78080789999876,66.78080789999876,66.78080789999876,66.78080789999876,0.010975700002745725,66.78080789999876,True,0.08777777777777777,-0.40444444444444444,1,0,0,ansThree,,,,,,,,,,,,,,,,002,2022-11-01_15h27.43.086,musicalMathTest,2022.2.0,59.95998270690761,
music\calm\instrumentals\Brand New Feelings (90) (Instrumental) by Land of Legs.wav,brand new feelings,calm,instrumental,2,90,subtract,53,49,4,6,11,9,0,0,0,6,0,2,2,44,,,,,,,,,,,,,,,,,,,,,,,,,,,,,,,72.89773869999772,72.89773869999772,72.89773869999772,72.89773869999772,72.89773869999772,0.01445640000019921,72.89773869999772,True,-0.29888888888888887,-0.4077777777777778,1,0,0,ansOne,,,,,,,,,,,,,,,,002,2022-11-01_15h27.43.086,musicalMathTest,2022.2.0,59.95998270690761,
music\calm\instrumentals\Brand New Feelings (90) (Instrumental) by Land of Legs.wav,brand new feelings,calm,instrumental,2,90,subtract,48,43,5,8,10,11,0,0,0,6,0,3,3,39,,,,,,,,,,,,,,,,,,,,,,,,,,,,,,,77.02316449999853,77.02316449999853,77.02316449999853,77.02316449999853,77.02316449999853,0.009117500001593726,77.02316449999853,True,-0.10777777777777778,-0.3977777777777778,1,0,0,ansTwo,,,,,,,,,,,,,,,,002,2022-11-01_15h27.43.086,musicalMathTest,2022.2.0,59.95998270690761,
music\calm\instrumentals\Brand New Feelings (90) (Instrumental) by Land of Legs.wav,brand new feelings,calm,instrumental,2,90,multiply,12,5,60,70,64,63,0,0,0,6,0,4,4,98,,,,,,,,,,,,,,,,,,,,,,,,,,,,,,,82.3893879999996,82.3893879999996,82.3893879999996,82.3893879999996,82.3893879999996,0.011392500000511063,82.3893879999996,True,0.09444444444444444,-0.4,1,0,0,ansThree,,,,,,,,,,,,,,,,002,2022-11-01_15h27.43.086,musicalMathTest,2022.2.0,59.95998270690761,
music\calm\instrumentals\Brand New Feelings (90) (Instrumental) by Land of Legs.wav,brand new feelings,calm,instrumental,2,90,add,54,49,103,105,109,107,0,0,0,6,0,5,5,0,,,,,,,,,,,,,,,,,,,,,,,,,,,,,,,85.63682589999735,85.63682589999735,85.63682589999735,85.63682589999735,85.63682589999735,0.008958999998867512,85.63682589999735,True,-0.29777777777777775,-0.4022222222222222,1,0,0,ansOne,,,,,,,,,,,,,,,,002,2022-11-01_15h27.43.086,musicalMathTest,2022.2.0,59.95998270690761,
music\calm\instrumentals\Brand New Feelings (90) (Instrumental) by Land of Legs.wav,brand new feelings,calm,instrumental,2,90,add,50,25,75,80,77,85,0,0,0,6,0,6,6,25,,,,,,,,,,,,,,,,,,,,,,,,,,,,,,,92.94920579999962,92.94920579999962,92.94920579999962,92.94920579999962,92.94920579999962,0.008763699999690289,92.94920579999962,True,0.10111111111111111,-0.39555555555555555,1,0,0,ansThree,,,,,,,,,,,,,,,,002,2022-11-01_15h27.43.086,musicalMathTest,2022.2.0,59.95998270690761,
music\calm\instrumentals\Brand New Feelings (90) (Instrumental) by Land of Legs.wav,brand new feelings,calm,instrumental,2,90,add,43,25,68,70,71,73,0,0,0,6,0,7,7,21,,,,,,,,,,,,,,,,,,,,,,,,,,,,,,,98.12940849999723,98.12940849999723,98.12940849999723,98.12940849999723,98.12940849999723,0.009074500001588603,98.12940849999723,True,-0.10888888888888888,-0.39444444444444443,1,0,0,ansTwo,,,,,,,,,,,,,,,,002,2022-11-01_15h27.43.086,musicalMathTest,2022.2.0,59.95998270690761,
music\calm\instrumentals\Brand New Feelings (90) (Instrumental) by Land of Legs.wav,brand new feelings,calm,instrumental,2,90,multiply,21,5,105,107,109,113,0,0,0,6,0,8,8,85,,,,,,,,,,,,,,,,,,,,,,,,,,,,,,,104.85889390000011,104.85889390000011,104.85889390000011,104.85889390000011,104.85889390000011,0.008810100000118837,104.85889390000011,True,-0.09,-0.4033333333333333,1,0,0,ansTwo,,,,,,,,,,,,,,,,002,2022-11-01_15h27.43.086,musicalMathTest,2022.2.0,59.95998270690761,
music\calm\instrumentals\Brand New Feelings (90) (Instrumental) by Land of Legs.wav,brand new feelings,calm,instrumental,2,90,multiply,10,18,180,186,185,187,0,0,0,6,0,9,9,104,,,,,,,,,,,,,,,,,,,,,,,,,,,,,,,108.057199699997,108.057199699997,108.057199699997,108.057199699997,108.057199699997,0.008669200000440469,108.057199699997,True,-0.09333333333333334,-0.4,1,0,0,ansTwo,,,,,,,,,,,,,,,,002,2022-11-01_15h27.43.086,musicalMathTest,2022.2.0,59.95998270690761,
music\calm\instrumentals\Brand New Feelings (90) (Instrumental) by Land of Legs.wav,brand new feelings,calm,instrumental,2,90,multiply,5,2,10,15,20,16,0,0,0,6,0,10,10,111,,,,,,,,,,,,,,,,,,,,,,,,,,,,,,,109.47428579999905,109.47428579999905,109.47428579999905,109.47428579999905,109.47428579999905,0.008620100001280662,109.47428579999905,True,-0.09333333333333334,-0.4,1,0,0,ansTwo,,,,,,,,,,,,,,,,002,2022-11-01_15h27.43.086,musicalMathTest,2022.2.0,59.95998270690761,
music\calm\instrumentals\Brand New Feelings (90) (Instrumental) by Land of Legs.wav,brand new feelings,calm,instrumental,2,90,add,46,43,89,92,91,99,0,0,0,6,0,11,11,2,,,,,,,,,,,,,,,,,,,,,,,,,,,,,,,110.75700059999872,110.75700059999872,110.75700059999872,110.75700059999872,110.75700059999872,0.009350899999844842,110.75700059999872,True,0.08444444444444445,-0.4066666666666667,1,0,0,ansThree,,,,,,,,,,,,,,,,002,2022-11-01_15h27.43.086,musicalMathTest,2022.2.0,59.95998270690761,
music\calm\instrumentals\Brand New Feelings (90) (Instrumental) by Land of Legs.wav,brand new feelings,calm,instrumental,2,90,multiply,21,10,210,220,218,216,0,0,0,6,0,12,12,77,,,,,,,,,,,,,,,,,,,,,,,,,,,,,,,118.88691649999964,118.88691649999964,118.88691649999964,118.88691649999964,118.88691649999964,0.00918180000007851,118.88691649999964,True,0.08444444444444445,-0.4066666666666667,1,0,0,ansThree,,,,,,,,,,,,,,,,002,2022-11-01_15h27.43.086,musicalMathTest,2022.2.0,59.95998270690761,
music\calm\instrumentals\Brand New Feelings (90) (Instrumental) by Land of Legs.wav,brand new feelings,calm,instrumental,2,90,add,22,22,44,52,49,52,0,0,0,6,0,13,13,20,,,,,,,,,,,,,,,,,,,,,,,,,,,,,,,120.81939259999854,120.81939259999854,120.81939259999854,120.81939259999854,120.81939259999854,0.009892899997794302,120.81939259999854,True,-0.3055555555555556,-0.39444444444444443,1,0,0,ansOne,,,,,,,,,,,,,,,,002,2022-11-01_15h27.43.086,musicalMathTest,2022.2.0,59.95998270690761,
music\calm\instrumentals\Brand New Feelings (90) (Instrumental) by Land of Legs.wav,brand new feelings,calm,instrumental,2,90,multiply,10,12,120,130,132,130,0,0,0,6,0,14,14,94,,,,,,,,,,,,,,,,,,,,,,,,,,,,,,,124.19994399999996,124.19994399999996,124.19994399999996,124.19994399999996,124.19994399999996,0.008818399997835513,124.19994399999996,True,-0.30444444444444446,-0.3977777777777778,1,0,0,ansOne,,,,,,,,,,,,,,,,002,2022-11-01_15h27.43.086,musicalMathTest,2022.2.0,59.95998270690761,
music\calm\instrumentals\Brand New Feelings (90) (Instrumental) by Land of Legs.wav,brand new feelings,calm,instrumental,2,90,add,51,49,100,102,104,108,0,0,0,6,0,15,15,10,,,,,,,,,,,,,,,,,,,,,,,,,,,,,,,125.93403009999747,125.93403009999747,125.93403009999747,125.93403009999747,125.93403009999747,0.009037600000738166,125.93403009999747,True,-0.30444444444444446,-0.39444444444444443,1,0,0,ansOne,,,,,,,,,,,,,,,,002,2022-11-01_15h27.43.086,musicalMathTest,2022.2.0,59.95998270690761,
music\calm\instrumentals\Brand New Feelings (90) (Instrumental) by Land of Legs.wav,brand new feelings,calm,instrumental,2,90,multiply,18,10,180,184,181,185,0,0,0,6,0,16,16,76,,,,,,,,,,,,,,,,,,,,,,,,,,,,,,,130.66413850000026,130.66413850000026,130.66413850000026,130.66413850000026,130.66413850000026,0.009088499999052146,130.66413850000026,True,-0.30444444444444446,-0.39444444444444443,1,0,0,ansOne,,,,,,,,,,,,,,,,002,2022-11-01_15h27.43.086,musicalMathTest,2022.2.0,59.95998270690761,
music\calm\instrumentals\Brand New Feelings (90) (Instrumental) by Land of Legs.wav,brand new feelings,calm,instrumental,2,90,subtract,49,48,1,7,6,3,0,0,0,6,0,17,17,54,,,,,,,,,,,,,,,,,,,,,,,,,,,,,,,132.21299329999965,132.21299329999965,132.21299329999965,132.21299329999965,132.21299329999965,0.009045899998454843,132.21299329999965,True,0.10111111111111111,-0.4,1,0,0,ansThree,,,,,,,,,,,,,,,,002,2022-11-01_15h27.43.086,musicalMathTest,2022.2.0,59.95998270690761,
music\calm\instrumentals\Brand New Feelings (90) (Instrumental) by Land of Legs.wav,brand new feelings,calm,instrumental,2,90,add,26,25,51,55,57,61,0,0,0,6,0,18,18,17,,,,,,,,,,,,,,,,,,,,,,,,,,,,,,,134.01428739999756,134.01428739999756,134.01428739999756,134.01428739999756,134.01428739999756,0.008841299997584429,134.01428739999756,True,0.10111111111111111,-0.4,1,0,0,ansThree,,,,,,,,,,,,,,,,002,2022-11-01_15h27.43.086,musicalMathTest,2022.2.0,59.95998270690761,
music\calm\instrumentals\Brand New Feelings (90) (Instrumental) by Land of Legs.wav,brand new feelings,calm,instrumental,2,90,multiply,18,10,180,190,184,182,0,0,0,6,0,19,19,68,,,,,,,,,,,,,,,,,,,,,,,,,,,,,,,137.87687879999794,137.87687879999794,137.87687879999794,137.87687879999794,137.87687879999794,0.009127699999226024,137.87687879999794,True,-0.28555555555555556,-0.3933333333333333,1,0,0,ansOne,,,,,,,,,,,,,,,,002,2022-11-01_15h27.43.086,musicalMathTest,2022.2.0,59.95998270690761,
music\calm\instrumentals\Brand New Feelings (90) (Instrumental) by Land of Legs.wav,brand new feelings,calm,instrumental,2,90,multiply,2,5,10,11,18,12,0,0,0,6,0,20,20,99,,,,,,,,,,,,,,,,,,,,,,,,,,,,,,,139.66039869999804,139.66039869999804,139.66039869999804,139.66039869999804,139.66039869999804,0.009030199998960597,139.66039869999804,True,-0.08333333333333333,-0.3988888888888889,1,0,0,ansTwo,,,,,,,,,,,,,,,,002,2022-11-01_15h27.43.086,musicalMathTest,2022.2.0,59.95998270690761,
music\calm\instrumentals\Brand New Feelings (90) (Instrumental) by Land of Legs.wav,brand new feelings,calm,instrumental,2,90,multiply,2,10,20,22,23,30,0,0,0,6,0,21,21,75,,,,,,,,,,,,,,,,,,,,,,,,,,,,,,,140.9760589999969,140.9760589999969,140.9760589999969,140.9760589999969,140.9760589999969,0.009313700000348035,140.9760589999969,True,-0.11333333333333333,-0.4011111111111111,1,0,0,ansTwo,,,,,,,,,,,,,,,,002,2022-11-01_15h27.43.086,musicalMathTest,2022.2.0,59.95998270690761,
music\calm\instrumentals\Brand New Feelings (90) (Instrumental) by Land of Legs.wav,brand new feelings,calm,instrumental,2,90,multiply,10,2,20,21,22,28,0,0,0,6,0,22,22,63,,,,,,,,,,,,,,,,,,,,,,,,,,,,,,,142.38071579999814,142.38071579999814,142.38071579999814,142.38071579999814,142.38071579999814,0.013336800002434757,142.38071579999814,True,0.09888888888888889,-0.40444444444444444,1,0,0,ansThree,,,,,,,,,,,,,,,,002,2022-11-01_15h27.43.086,musicalMathTest,2022.2.0,59.95998270690761,
music\calm\instrumentals\Brand New Feelings (90) (Instrumental) by Land of Legs.wav,brand new feelings,calm,instrumental,2,90,add,53,49,102,109,107,112,0,0,0,6,0,23,23,13,,,,,,,,,,,,,,,,,,,,,,,,,,,,,,,144.4753368999991,144.4753368999991,144.4753368999991,144.4753368999991,144.4753368999991,0.00973100000192062,144.4753368999991,True,-0.29,-0.40555555555555556,1,0,0,ansOne,,,,,,,,,,,,,,,,002,2022-11-01_15h27.43.086,musicalMathTest,2022.2.0,59.95998270690761,
music\calm\instrumentals\Brand New Feelings (90) (Instrumental) by Land of Legs.wav,brand new feelings,calm,instrumental,2,90,add,49,28,77,79,78,81,0,0,0,6,0,24,24,26,,,,,,,,,,,,,,,,,,,,,,,,,,,,,,,150.48809609999807,150.48809609999807,150.48809609999807,150.48809609999807,150.48809609999807,0.008899299999029608,150.48809609999807,True,-0.09666666666666666,-0.40444444444444444,1,0,0,ansTwo,,,,,,,,,,,,,,,,002,2022-11-01_15h27.43.086,musicalMathTest,2022.2.0,59.95998270690761,
music\calm\vocals\Younger Then (90) by Allebasi.wav,younger then,calm,vocals,2,90,multiply,10,18,180,186,185,187,0,1,1,3,0,0,0,104,,,,,,,,,,,,,,,,,,,,,,,,161.72129329999734,0.0837831000026199,-0.04555555555555556,-0.16777777777777778,1,0,0,166.38288569999713,166.38288569999713,166.38288569999713,166.38288569999713,166.38288569999713,0.03089170000021113,166.38288569999713,True,-0.1,-0.3977777777777778,1,0,0,ansTwo,156.64843660000042,,,,,,,,,,,,,,,002,2022-11-01_15h27.43.086,musicalMathTest,2022.2.0,59.95998270690761,
music\calm\vocals\Younger Then (90) by Allebasi.wav,younger then,calm,vocals,2,90,multiply,2,2,4,5,10,11,0,1,1,3,0,1,1,87,,,,,,,,,,,,,,,,,,,,,,,,,,,,,,,167.89380799999708,167.89380799999708,167.89380799999708,167.89380799999708,167.89380799999708,0.008183699999790406,167.89380799999708,True,0.09222222222222222,-0.4,1,0,0,ansThree,,,,,,,,,,,,,,,,002,2022-11-01_15h27.43.086,musicalMathTest,2022.2.0,59.95998270690761,
music\calm\vocals\Younger Then (90) by Allebasi.wav,younger then,calm,vocals,2,90,subtract,49,48,1,7,6,3,0,1,1,3,0,2,2,54,,,,,,,,,,,,,,,,,,,,,,,,,,,,,,,169.34482279999793,169.34482279999793,169.34482279999793,169.34482279999793,169.34482279999793,0.009197400002449285,169.34482279999793,True,-0.30444444444444446,-0.3877777777777778,1,0,0,ansOne,,,,,,,,,,,,,,,,002,2022-11-01_15h27.43.086,musicalMathTest,2022.2.0,59.95998270690761,
music\calm\vocals\Younger Then (90) by Allebasi.wav,younger then,calm,vocals,2,90,multiply,10,2,20,21,22,28,0,1,1,3,0,3,3,63,,,,,,,,,,,,,,,,,,,,,,,,,,,,,,,171.62607669999852,171.62607669999852,171.62607669999852,171.62607669999852,171.62607669999852,0.009026100000482984,171.62607669999852,True,0.10222222222222223,-0.39222222222222225,1,0,0,ansThree,,,,,,,,,,,,,,,,002,2022-11-01_15h27.43.086,musicalMathTest,2022.2.0,59.95998270690761,
music\calm\vocals\Younger Then (90) by Allebasi.wav,younger then,calm,vocals,2,90,add,48,43,91,99,95,92,0,1,1,3,0,4,4,15,,,,,,,,,,,,,,,,,,,,,,,,,,,,,,,173.14352089999738,173.14352089999738,173.14352089999738,173.14352089999738,173.14352089999738,0.009495400001469534,173.14352089999738,True,0.08333333333333333,-0.4011111111111111,1,0,0,ansThree,,,,,,,,,,,,,,,,002,2022-11-01_15h27.43.086,musicalMathTest,2022.2.0,59.95998270690761,
music\calm\vocals\Younger Then (90) by Allebasi.wav,younger then,calm,vocals,2,90,subtract,50,22,28,29,18,36,0,1,1,3,0,5,5,59,,,,,,,,,,,,,,,,,,,,,,,,,,,,,,,178.32474960000036,178.32474960000036,178.32474960000036,178.32474960000036,178.32474960000036,0.00883369999792194,178.32474960000036,True,-0.10666666666666667,-0.40444444444444444,1,0,0,ansTwo,,,,,,,,,,,,,,,,002,2022-11-01_15h27.43.086,musicalMathTest,2022.2.0,59.95998270690761,
music\calm\vocals\Younger Then (90) by Allebasi.wav,younger then,calm,vocals,2,90,add,50,48,98,101,108,106,0,1,1,3,0,6,6,19,,,,,,,,,,,,,,,,,,,,,,,,,,,,,,,184.23734069999773,184.23734069999773,184.23734069999773,184.23734069999773,184.23734069999773,0.019429899999522604,184.23734069999773,True,-0.3055555555555556,-0.4,1,0,0,ansOne,,,,,,,,,,,,,,,,002,2022-11-01_15h27.43.086,musicalMathTest,2022.2.0,59.95998270690761,
music\calm\vocals\Younger Then (90) by Allebasi.wav,younger then,calm,vocals,2,90,subtract,54,49,5,12,7,6,0,1,1,3,0,7,7,31,,,,,,,,,,,,,,,,,,,,,,,,,,,,,,,187.55404199999975,187.55404199999975,187.55404199999975,187.55404199999975,187.55404199999975,0.0087268999996013,187.55404199999975,True,-0.10111111111111111,-0.39666666666666667,1,0,0,ansTwo,,,,,,,,,,,,,,,,002,2022-11-01_15h27.43.086,musicalMathTest,2022.2.0,59.95998270690761,
music\calm\vocals\Younger Then (90) by Allebasi.wav,younger then,calm,vocals,2,90,add,28,14,42,47,43,46,0,1,1,3,0,8,8,14,,,,,,,,,,,,,,,,,,,,,,,,,,,,,,,192.50258869999743,192.50258869999743,192.50258869999743,192.50258869999743,192.50258869999743,0.010208899999270216,192.50258869999743,True,0.08777777777777777,-0.39444444444444443,1,0,0,ansThree,,,,,,,,,,,,,,,,002,2022-11-01_15h27.43.086,musicalMathTest,2022.2.0,59.95998270690761,
music\calm\vocals\Younger Then (90) by Allebasi.wav,younger then,calm,vocals,2,90,multiply,2,10,20,27,29,27,0,1,1,3,0,9,9,91,,,,,,,,,,,,,,,,,,,,,,,,,,,,,,,199.1968734999973,199.1968734999973,199.1968734999973,199.1968734999973,199.1968734999973,0.008754900001804344,199.1968734999973,True,-0.2966666666666667,-0.3977777777777778,1,0,0,ansOne,,,,,,,,,,,,,,,,002,2022-11-01_15h27.43.086,musicalMathTest,2022.2.0,59.95998270690761,
music\calm\vocals\Younger Then (90) by Allebasi.wav,younger then,calm,vocals,2,90,subtract,50,25,25,31,32,29,0,1,1,3,0,10,10,56,,,,,,,,,,,,,,,,,,,,,,,,,,,,,,,200.9133855,200.9133855,200.9133855,200.9133855,200.9133855,0.00935590000153752,200.9133855,True,-0.29777777777777775,-0.39666666666666667,1,0,0,ansOne,,,,,,,,,,,,,,,,002,2022-11-01_15h27.43.086,musicalMathTest,2022.2.0,59.95998270690761,
music\calm\vocals\Younger Then (90) by Allebasi.wav,younger then,calm,vocals,2,90,multiply,10,18,180,188,190,194,0,1,1,3,0,11,11,96,,,,,,,,,,,,,,,,,,,,,,,,,,,,,,,203.4089215999993,203.4089215999993,203.4089215999993,203.4089215999993,203.4089215999993,0.018053299998427974,203.4089215999993,True,0.10111111111111111,-0.40444444444444444,1,0,0,ansThree,,,,,,,,,,,,,,,,002,2022-11-01_15h27.43.086,musicalMathTest,2022.2.0,59.95998270690761,
music\calm\vocals\Younger Then (90) by Allebasi.wav,younger then,calm,vocals,2,90,add,54,49,103,105,109,107,0,1,1,3,0,12,12,0,,,,,,,,,,,,,,,,,,,,,,,,,,,,,,,206.7447355999975,206.7447355999975,206.7447355999975,206.7447355999975,206.7447355999975,0.009134500000072876,206.7447355999975,True,-0.08,-0.39555555555555555,1,0,0,ansTwo,,,,,,,,,,,,,,,,002,2022-11-01_15h27.43.086,musicalMathTest,2022.2.0,59.95998270690761,
music\calm\vocals\Younger Then (90) by Allebasi.wav,younger then,calm,vocals,2,90,multiply,10,18,180,183,184,187,0,1,1,3,0,13,13,80,,,,,,,,,,,,,,,,,,,,,,,,,,,,,,,214.63972869999998,214.63972869999998,214.63972869999998,214.63972869999998,214.63972869999998,0.008751099998335121,214.63972869999998,True,-0.09777777777777778,-0.39666666666666667,1,0,0,ansTwo,,,,,,,,,,,,,,,,002,2022-11-01_15h27.43.086,musicalMathTest,2022.2.0,59.95998270690761,
music\calm\vocals\Younger Then (90) by Allebasi.wav,younger then,calm,vocals,2,90,add,50,25,75,80,77,85,0,1,1,3,0,14,14,25,,,,,,,,,,,,,,,,,,,,,,,,,,,,,,,216.43898549999722,216.43898549999722,216.43898549999722,216.43898549999722,216.43898549999722,0.00951070000155596,216.43898549999722,True,-0.10111111111111111,-0.4022222222222222,1,0,0,ansTwo,,,,,,,,,,,,,,,,002,2022-11-01_15h27.43.086,musicalMathTest,2022.2.0,59.95998270690761,
music\calm\vocals\Younger Then (90) by Allebasi.wav,younger then,calm,vocals,2,90,subtract,22,22,0,5,4,5,0,1,1,3,0,15,15,51,,,,,,,,,,,,,,,,,,,,,,,,,,,,,,,219.0052238999997,219.0052238999997,219.0052238999997,219.0052238999997,219.0052238999997,0.008577399999921909,219.0052238999997,True,-0.3055555555555556,-0.39111111111111113,1,0,0,ansOne,,,,,,,,,,,,,,,,002,2022-11-01_15h27.43.086,musicalMathTest,2022.2.0,59.95998270690761,
music\calm\vocals\Younger Then (90) by Allebasi.wav,younger then,calm,vocals,2,90,add,52,50,102,107,112,107,0,1,1,3,0,16,16,12,,,,,,,,,,,,,,,,,,,,,,,,,,,,,,,220.75340739999956,220.75340739999956,220.75340739999956,220.75340739999956,220.75340739999956,0.009180999997624895,220.75340739999956,True,-0.3088888888888889,-0.39666666666666667,1,0,0,ansOne,,,,,,,,,,,,,,,,002,2022-11-01_15h27.43.086,musicalMathTest,2022.2.0,59.95998270690761,
music\calm\vocals\Younger Then (90) by Allebasi.wav,younger then,calm,vocals,2,90,subtract,53,50,3,6,11,10,0,1,1,3,0,17,17,40,,,,,,,,,,,,,,,,,,,,,,,,,,,,,,,225.10100729999976,225.10100729999976,225.10100729999976,225.10100729999976,225.10100729999976,0.008782299999438692,225.10100729999976,True,0.09222222222222222,-0.3977777777777778,1,0,0,ansThree,,,,,,,,,,,,,,,,002,2022-11-01_15h27.43.086,musicalMathTest,2022.2.0,59.95998270690761,
music\calm\vocals\Younger Then (90) by Allebasi.wav,younger then,calm,vocals,2,90,multiply,12,10,120,126,122,127,0,1,1,3,0,18,18,74,,,,,,,,,,,,,,,,,,,,,,,,,,,,,,,227.8834829999978,227.8834829999978,227.8834829999978,227.8834829999978,227.8834829999978,0.009229900002537761,227.8834829999978,True,-0.10222222222222223,-0.4077777777777778,1,0,0,ansTwo,,,,,,,,,,,,,,,,002,2022-11-01_15h27.43.086,musicalMathTest,2022.2.0,59.95998270690761,
music\calm\vocals\Younger Then (90) by Allebasi.wav,younger then,calm,vocals,2,90,add,28,28,56,62,61,63,0,1,1,3,0,19,19,30,,,,,,,,,,,,,,,,,,,,,,,,,,,,,,,229.3655024999971,229.3655024999971,229.3655024999971,229.3655024999971,229.3655024999971,0.00918900000033318,229.3655024999971,True,0.1,-0.4011111111111111,1,0,0,ansThree,,,,,,,,,,,,,,,,002,2022-11-01_15h27.43.086,musicalMathTest,2022.2.0,59.95998270690761,
music\calm\vocals\Younger Then (90) by Allebasi.wav,younger then,calm,vocals,2,90,multiply,10,12,120,125,126,128,0,1,1,3,0,20,20,62,,,,,,,,,,,,,,,,,,,,,,,,,,,,,,,237.77962809999735,237.77962809999735,237.77962809999735,237.77962809999735,237.77962809999735,0.009016099997097626,237.77962809999735,True,-0.08777777777777777,-0.40555555555555556,1,0,0,ansTwo,,,,,,,,,,,,,,,,002,2022-11-01_15h27.43.086,musicalMathTest,2022.2.0,59.95998270690761,
music\calm\vocals\Younger Then (90) by Allebasi.wav,younger then,calm,vocals,2,90,subtract,52,50,2,3,4,5,0,1,1,3,0,21,21,43,,,,,,,,,,,,,,,,,,,,,,,,,,,,,,,239.39382759999717,239.39382759999717,239.39382759999717,239.39382759999717,239.39382759999717,0.008730400000786176,239.39382759999717,True,-0.30444444444444446,-0.3977777777777778,1,0,0,ansOne,,,,,,,,,,,,,,,,002,2022-11-01_15h27.43.086,musicalMathTest,2022.2.0,59.95998270690761,
music\calm\vocals\Younger Then (90) by Allebasi.wav,younger then,calm,vocals,2,90,add,25,14,39,42,44,40,0,1,1,3,0,22,22,1,,,,,,,,,,,,,,,,,,,,,,,,,,,,,,,241.40997760000027,241.40997760000027,241.40997760000027,241.40997760000027,241.40997760000027,0.009295899999415269,241.40997760000027,True,-0.1,-0.4066666666666667,1,0,0,ansTwo,,,,,,,,,,,,,,,,002,2022-11-01_15h27.43.086,musicalMathTest,2022.2.0,59.95998270690761,
music\calm\vocals\Younger Then (90) by Allebasi.wav,younger then,calm,vocals,2,90,multiply,21,10,210,213,214,216,0,1,1,3,0,23,23,69,,,,,,,,,,,,,,,,,,,,,,,,,,,,,,,248.45693969999775,248.45693969999775,248.45693969999775,248.45693969999775,248.45693969999775,0.008929800002078991,248.45693969999775,True,0.09666666666666666,-0.4033333333333333,1,0,0,ansThree,,,,,,,,,,,,,,,,002,2022-11-01_15h27.43.086,musicalMathTest,2022.2.0,59.95998270690761,
music\calm\vocals\Younger Then (90) by Allebasi.wav,younger then,calm,vocals,2,90,add,26,25,51,55,57,61,0,1,1,3,0,24,24,17,,,,,,,,,,,,,,,,,,,,,,,,,,,,,,,250.49087270000018,250.49087270000018,250.49087270000018,250.49087270000018,250.49087270000018,0.009269900001527276,250.49087270000018,True,-0.1,-0.4066666666666667,1,0,0,ansTwo,,,,,,,,,,,,,,,,002,2022-11-01_15h27.43.086,musicalMathTest,2022.2.0,59.95998270690761,
music\silence.wav,silent,silent,silent,2,90,multiply,10,12,120,125,126,128,0,2,2,4,0,0,0,62,,,,,,,,,,,,,,,,,,,,,,,,257.95180769999934,0.06088420000014594,-0.012222222222222223,-0.14777777777777779,1,0,0,259.5630495999976,259.5630495999976,259.5630495999976,259.5630495999976,259.5630495999976,0.027936000002227956,259.5630495999976,True,-0.29444444444444445,-0.39555555555555555,1,0,0,ansOne,252.90165349999734,,,,,,,,,,,,,,,002,2022-11-01_15h27.43.086,musicalMathTest,2022.2.0,59.95998270690761,
music\silence.wav,silent,silent,silent,2,90,add,49,48,97,105,99,101,0,2,2,4,0,1,1,23,,,,,,,,,,,,,,,,,,,,,,,,,,,,,,,262.18144889999894,262.18144889999894,262.18144889999894,262.18144889999894,262.18144889999894,0.008179300002666423,262.18144889999894,True,0.10111111111111111,-0.4,1,0,0,ansThree,,,,,,,,,,,,,,,,002,2022-11-01_15h27.43.086,musicalMathTest,2022.2.0,59.95998270690761,
music\silence.wav,silent,silent,silent,2,90,multiply,2,2,4,5,10,11,0,2,2,4,0,2,2,87,,,,,,,,,,,,,,,,,,,,,,,,,,,,,,,269.0954361999975,269.0954361999975,269.0954361999975,269.0954361999975,269.0954361999975,0.008647700000437908,269.0954361999975,True,0.09444444444444444,-0.39555555555555555,1,0,0,ansThree,,,,,,,,,,,,,,,,002,2022-11-01_15h27.43.086,musicalMathTest,2022.2.0,59.95998270690761,
music\silence.wav,silent,silent,silent,2,90,multiply,10,21,210,215,213,217,0,2,2,4,0,3,3,105,,,,,,,,,,,,,,,,,,,,,,,,,,,,,,,270.5792307999982,270.5792307999982,270.5792307999982,270.5792307999982,270.5792307999982,0.009327799998573028,270.5792307999982,True,-0.10444444444444445,-0.4022222222222222,1,0,0,ansTwo,,,,,,,,,,,,,,,,002,2022-11-01_15h27.43.086,musicalMathTest,2022.2.0,59.95998270690761,
music\silence.wav,silent,silent,silent,2,90,multiply,12,10,120,124,123,128,0,2,2,4,0,4,4,66,,,,,,,,,,,,,,,,,,,,,,,,,,,,,,,272.246568999999,272.246568999999,272.246568999999,272.246568999999,272.246568999999,0.009270600003219442,272.246568999999,True,-0.10444444444444445,-0.3977777777777778,1,0,0,ansTwo,,,,,,,,,,,,,,,,002,2022-11-01_15h27.43.086,musicalMathTest,2022.2.0,59.95998270690761,
music\silence.wav,silent,silent,silent,2,90,multiply,10,18,180,188,190,194,0,2,2,4,0,5,5,96,,,,,,,,,,,,,,,,,,,,,,,,,,,,,,,274.01084759999867,274.01084759999867,274.01084759999867,274.01084759999867,274.01084759999867,0.008972700001322664,274.01084759999867,True,0.11444444444444445,-0.3888888888888889,1,0,0,ansThree,,,,,,,,,,,,,,,,002,2022-11-01_15h27.43.086,musicalMathTest,2022.2.0,59.95998270690761,
music\silence.wav,silent,silent,silent,2,90,subtract,26,25,1,7,9,7,0,2,2,4,0,6,6,48,,,,,,,,,,,,,,,,,,,,,,,,,,,,,,,276.00971189999836,276.00971189999836,276.00971189999836,276.00971189999836,276.00971189999836,0.009092899999814108,276.00971189999836,True,-0.09777777777777778,-0.3988888888888889,1,0,0,ansTwo,,,,,,,,,,,,,,,,002,2022-11-01_15h27.43.086,musicalMathTest,2022.2.0,59.95998270690761,
music\silence.wav,silent,silent,silent,2,90,multiply,21,10,210,217,214,216,0,2,2,4,0,7,7,109,,,,,,,,,,,,,,,,,,,,,,,,,,,,,,,278.4078475999995,278.4078475999995,278.4078475999995,278.4078475999995,278.4078475999995,0.008985399999801302,278.4078475999995,True,-0.09777777777777778,-0.3988888888888889,1,0,0,ansTwo,,,,,,,,,,,,,,,,002,2022-11-01_15h27.43.086,musicalMathTest,2022.2.0,59.95998270690761,
music\silence.wav,silent,silent,silent,2,90,add,48,43,91,99,95,92,0,2,2,4,0,8,8,15,,,,,,,,,,,,,,,,,,,,,,,,,,,,,,,279.7422885999986,279.7422885999986,279.7422885999986,279.7422885999986,279.7422885999986,0.00987869999880786,279.7422885999986,True,-0.2966666666666667,-0.4011111111111111,1,0,0,ansOne,,,,,,,,,,,,,,,,002,2022-11-01_15h27.43.086,musicalMathTest,2022.2.0,59.95998270690761,
music\silence.wav,silent,silent,silent,2,90,subtract,28,14,14,20,22,26,0,2,2,4,0,9,9,45,,,,,,,,,,,,,,,,,,,,,,,,,,,,,,,284.4906553999972,284.4906553999972,284.4906553999972,284.4906553999972,284.4906553999972,0.009242100000847131,284.4906553999972,True,-0.09333333333333334,-0.4,1,0,0,ansTwo,,,,,,,,,,,,,,,,002,2022-11-01_15h27.43.086,musicalMathTest,2022.2.0,59.95998270690761,
music\silence.wav,silent,silent,silent,2,90,multiply,5,12,60,61,66,64,0,2,2,4,0,10,10,70,,,,,,,,,,,,,,,,,,,,,,,,,,,,,,,287.83787569999913,287.83787569999913,287.83787569999913,287.83787569999913,287.83787569999913,0.009022599999298109,287.83787569999913,True,0.10555555555555556,-0.4077777777777778,1,0,0,ansThree,,,,,,,,,,,,,,,,002,2022-11-01_15h27.43.086,musicalMathTest,2022.2.0,59.95998270690761,
music\silence.wav,silent,silent,silent,2,90,multiply,10,2,20,25,30,25,0,2,2,4,0,11,11,79,,,,,,,,,,,,,,,,,,,,,,,,,,,,,,,291.269304999998,291.269304999998,291.269304999998,291.269304999998,291.269304999998,0.008890900000551483,291.269304999998,True,0.10555555555555556,-0.4077777777777778,1,0,0,ansThree,,,,,,,,,,,,,,,,002,2022-11-01_15h27.43.086,musicalMathTest,2022.2.0,59.95998270690761,
music\silence.wav,silent,silent,silent,2,90,add,53,49,102,109,107,112,0,2,2,4,0,12,12,13,,,,,,,,,,,,,,,,,,,,,,,,,,,,,,,292.73581249999916,292.73581249999916,292.73581249999916,292.73581249999916,292.73581249999916,0.009165499999653548,292.73581249999916,True,-0.10333333333333333,-0.40444444444444444,1,0,0,ansTwo,,,,,,,,,,,,,,,,002,2022-11-01_15h27.43.086,musicalMathTest,2022.2.0,59.95998270690761,
music\silence.wav,silent,silent,silent,2,90,subtract,43,28,15,22,21,19,0,2,2,4,0,13,13,49,,,,,,,,,,,,,,,,,,,,,,,,,,,,,,,296.46609030000036,296.46609030000036,296.46609030000036,296.46609030000036,296.46609030000036,0.008754200000112178,296.46609030000036,True,-0.10111111111111111,-0.4033333333333333,1,0,0,ansTwo,,,,,,,,,,,,,,,,002,2022-11-01_15h27.43.086,musicalMathTest,2022.2.0,59.95998270690761,
music\silence.wav,silent,silent,silent,2,90,subtract,50,50,0,5,7,2,0,2,2,4,0,14,14,34,,,,,,,,,,,,,,,,,,,,,,,,,,,,,,,306.0958912999995,306.0958912999995,306.0958912999995,306.0958912999995,306.0958912999995,0.008542200001102174,306.0958912999995,True,-0.3011111111111111,-0.3933333333333333,1,0,0,ansOne,,,,,,,,,,,,,,,,002,2022-11-01_15h27.43.086,musicalMathTest,2022.2.0,59.95998270690761,
music\silence.wav,silent,silent,silent,2,90,add,49,28,77,79,78,81,0,2,2,4,0,15,15,26,,,,,,,,,,,,,,,,,,,,,,,,,,,,,,,307.90984129999924,307.90984129999924,307.90984129999924,307.90984129999924,307.90984129999924,0.008468699998047668,307.90984129999924,True,-0.3011111111111111,-0.3933333333333333,1,0,0,ansOne,,,,,,,,,,,,,,,,002,2022-11-01_15h27.43.086,musicalMathTest,2022.2.0,59.95998270690761,
music\silence.wav,silent,silent,silent,2,90,add,50,25,75,80,77,85,0,2,2,4,0,16,16,25,,,,,,,,,,,,,,,,,,,,,,,,,,,,,,,321.5725194999977,321.5725194999977,321.5725194999977,321.5725194999977,321.5725194999977,0.009725199997774325,321.5725194999977,True,0.09444444444444444,-0.39555555555555555,1,0,0,ansThree,,,,,,,,,,,,,,,,002,2022-11-01_15h27.43.086,musicalMathTest,2022.2.0,59.95998270690761,
music\silence.wav,silent,silent,silent,2,90,multiply,21,10,210,214,217,216,0,2,2,4,0,17,17,93,,,,,,,,,,,,,,,,,,,,,,,,,,,,,,,324.4879034999976,324.4879034999976,324.4879034999976,324.4879034999976,324.4879034999976,0.009404700002050959,324.4879034999976,True,-0.10333333333333333,-0.4066666666666667,1,0,0,ansTwo,,,,,,,,,,,,,,,,002,2022-11-01_15h27.43.086,musicalMathTest,2022.2.0,59.95998270690761,
music\silence.wav,silent,silent,silent,2,90,multiply,2,18,36,37,41,45,0,2,2,4,0,18,18,88,,,,,,,,,,,,,,,,,,,,,,,,,,,,,,,326.10277569999744,326.10277569999744,326.10277569999744,326.10277569999744,326.10277569999744,0.009716900000057649,326.10277569999744,True,0.1,-0.40555555555555556,1,0,0,ansThree,,,,,,,,,,,,,,,,002,2022-11-01_15h27.43.086,musicalMathTest,2022.2.0,59.95998270690761,
music\silence.wav,silent,silent,silent,2,90,multiply,10,2,20,27,26,24,0,2,2,4,0,19,19,95,,,,,,,,,,,,,,,,,,,,,,,,,,,,,,,329.61765599999853,329.61765599999853,329.61765599999853,329.61765599999853,329.61765599999853,0.009334500002296409,329.61765599999853,True,-0.29555555555555557,-0.4011111111111111,1,0,0,ansOne,,,,,,,,,,,,,,,,002,2022-11-01_15h27.43.086,musicalMathTest,2022.2.0,59.95998270690761,
music\silence.wav,silent,silent,silent,2,90,subtract,43,25,18,21,25,19,0,2,2,4,0,20,20,52,,,,,,,,,,,,,,,,,,,,,,,,,,,,,,,331.64967409999736,331.64967409999736,331.64967409999736,331.64967409999736,331.64967409999736,0.009090799998375587,331.64967409999736,True,0.09666666666666666,-0.4022222222222222,1,0,0,ansThree,,,,,,,,,,,,,,,,002,2022-11-01_15h27.43.086,musicalMathTest,2022.2.0,59.95998270690761,
music\silence.wav,silent,silent,silent,2,90,add,48,14,62,63,72,66,0,2,2,4,0,21,21,11,,,,,,,,,,,,,,,,,,,,,,,,,,,,,,,339.79685830000017,339.79685830000017,339.79685830000017,339.79685830000017,339.79685830000017,0.01004339999781223,339.79685830000017,True,-0.09333333333333334,-0.40444444444444444,1,0,0,ansTwo,,,,,,,,,,,,,,,,002,2022-11-01_15h27.43.086,musicalMathTest,2022.2.0,59.95998270690761,
music\silence.wav,silent,silent,silent,2,90,multiply,12,10,120,126,122,127,0,2,2,4,0,22,22,74,,,,,,,,,,,,,,,,,,,,,,,,,,,,,,,347.0256026999996,347.0256026999996,347.0256026999996,347.0256026999996,347.0256026999996,0.009307000000262633,347.0256026999996,True,-0.09333333333333334,-0.40444444444444444,1,0,0,ansTwo,,,,,,,,,,,,,,,,002,2022-11-01_15h27.43.086,musicalMathTest,2022.2.0,59.95998270690761,
music\active\instrumentals\Soda Pop (90) (Instrumental) by Stony Pony.wav,soda pop,active,instrumental,2,90,multiply,21,10,210,220,218,216,0,3,3,0,0,0,0,77,,,,,,,,,,,,,,,,,,,,,,,,353.59607010000036,0.08448149999821908,-0.03333333333333333,-0.1322222222222222,1,0,0,356.51883180000004,356.51883180000004,356.51883180000004,356.51883180000004,356.51883180000004,0.034945800001878524,356.51883180000004,True,-0.11777777777777777,-0.4111111111111111,1,0,0,ansTwo,348.52164919999996,,,,,,,,,,,,,,,002,2022-11-01_15h27.43.086,musicalMathTest,2022.2.0,59.95998270690761,
music\active\instrumentals\Soda Pop (90) (Instrumental) by Stony Pony.wav,soda pop,active,instrumental,2,90,add,50,28,78,86,85,88,0,3,3,0,0,1,1,22,,,,,,,,,,,,,,,,,,,,,,,,,,,,,,,358.2680481999996,358.2680481999996,358.2680481999996,358.2680481999996,358.2680481999996,0.008201399999961723,358.2680481999996,True,-0.09222222222222222,-0.4033333333333333,1,0,0,ansTwo,,,,,,,,,,,,,,,,002,2022-11-01_15h27.43.086,musicalMathTest,2022.2.0,59.95998270690761,
music\active\instrumentals\Soda Pop (90) (Instrumental) by Stony Pony.wav,soda pop,active,instrumental,2,90,add,48,48,96,101,103,99,0,3,3,0,0,2,2,27,,,,,,,,,,,,,,,,,,,,,,,,,,,,,,,361.86622969999735,361.86622969999735,361.86622969999735,361.86622969999735,361.86622969999735,0.008671100000356091,361.86622969999735,True,0.08444444444444445,-0.4011111111111111,1,0,0,ansThree,,,,,,,,,,,,,,,,002,2022-11-01_15h27.43.086,musicalMathTest,2022.2.0,59.95998270690761,
music\active\instrumentals\Soda Pop (90) (Instrumental) by Stony Pony.wav,soda pop,active,instrumental,2,90,multiply,10,18,180,183,184,187,0,3,3,0,0,3,3,80,,,,,,,,,,,,,,,,,,,,,,,,,,,,,,,370.98138409999956,370.98138409999956,370.98138409999956,370.98138409999956,370.98138409999956,0.008834500000375556,370.98138409999956,True,-0.10333333333333333,-0.40555555555555556,1,0,0,ansTwo,,,,,,,,,,,,,,,,002,2022-11-01_15h27.43.086,musicalMathTest,2022.2.0,59.95998270690761,
music\active\instrumentals\Soda Pop (90) (Instrumental) by Stony Pony.wav,soda pop,active,instrumental,2,90,multiply,5,2,10,11,17,21,0,3,3,0,0,4,4,71,,,,,,,,,,,,,,,,,,,,,,,,,,,,,,,372.5630807999987,372.5630807999987,372.5630807999987,372.5630807999987,372.5630807999987,0.009389799997734372,372.5630807999987,True,-0.08888888888888889,-0.40444444444444444,1,0,0,ansTwo,,,,,,,,,,,,,,,,002,2022-11-01_15h27.43.086,musicalMathTest,2022.2.0,59.95998270690761,
music\active\instrumentals\Soda Pop (90) (Instrumental) by Stony Pony.wav,soda pop,active,instrumental,2,90,multiply,2,10,20,22,23,30,0,3,3,0,0,5,5,75,,,,,,,,,,,,,,,,,,,,,,,,,,,,,,,373.911504599997,373.911504599997,373.911504599997,373.911504599997,373.911504599997,0.008795800000370946,373.911504599997,True,-0.09444444444444444,-0.40444444444444444,1,0,0,ansTwo,,,,,,,,,,,,,,,,002,2022-11-01_15h27.43.086,musicalMathTest,2022.2.0,59.95998270690761,
music\active\instrumentals\Soda Pop (90) (Instrumental) by Stony Pony.wav,soda pop,active,instrumental,2,90,multiply,21,10,210,214,217,216,0,3,3,0,0,6,6,93,,,,,,,,,,,,,,,,,,,,,,,,,,,,,,,375.2632233000004,375.2632233000004,375.2632233000004,375.2632233000004,375.2632233000004,0.009060000000317814,375.2632233000004,True,-0.09555555555555556,-0.40444444444444444,1,0,0,ansTwo,,,,,,,,,,,,,,,,002,2022-11-01_15h27.43.086,musicalMathTest,2022.2.0,59.95998270690761,
music\active\instrumentals\Soda Pop (90) (Instrumental) by Stony Pony.wav,soda pop,active,instrumental,2,90,multiply,12,5,60,70,64,63,0,3,3,0,0,7,7,98,,,,,,,,,,,,,,,,,,,,,,,,,,,,,,,378.9764666999981,378.9764666999981,378.9764666999981,378.9764666999981,378.9764666999981,0.008870999998180196,378.9764666999981,True,-0.09555555555555556,-0.40444444444444444,1,0,0,ansTwo,,,,,,,,,,,,,,,,002,2022-11-01_15h27.43.086,musicalMathTest,2022.2.0,59.95998270690761,
music\active\instrumentals\Soda Pop (90) (Instrumental) by Stony Pony.wav,soda pop,active,instrumental,2,90,subtract,50,28,22,29,31,30,0,3,3,0,0,8,8,53,,,,,,,,,,,,,,,,,,,,,,,,,,,,,,,383.3594849000001,383.3594849000001,383.3594849000001,383.3594849000001,383.3594849000001,0.009851899998466251,383.3594849000001,True,-0.30444444444444446,-0.39666666666666667,1,0,0,ansOne,,,,,,,,,,,,,,,,002,2022-11-01_15h27.43.086,musicalMathTest,2022.2.0,59.95998270690761,
music\active\instrumentals\Soda Pop (90) (Instrumental) by Stony Pony.wav,soda pop,active,instrumental,2,90,add,43,25,68,70,71,73,0,3,3,0,0,9,9,21,,,,,,,,,,,,,,,,,,,,,,,,,,,,,,,390.4703871999991,390.4703871999991,390.4703871999991,390.4703871999991,390.4703871999991,0.008685199998581083,390.4703871999991,True,0.10666666666666667,-0.4033333333333333,1,0,0,ansThree,,,,,,,,,,,,,,,,002,2022-11-01_15h27.43.086,musicalMathTest,2022.2.0,59.95998270690761,
music\active\instrumentals\Soda Pop (90) (Instrumental) by Stony Pony.wav,soda pop,active,instrumental,2,90,multiply,10,21,210,215,220,224,0,3,3,0,0,10,10,81,,,,,,,,,,,,,,,,,,,,,,,,,,,,,,,398.2669782999983,398.2669782999983,398.2669782999983,398.2669782999983,398.2669782999983,0.00961989999996149,398.2669782999983,True,0.07666666666666666,-0.3988888888888889,1,0,0,ansThree,,,,,,,,,,,,,,,,002,2022-11-01_15h27.43.086,musicalMathTest,2022.2.0,59.95998270690761,
music\active\instrumentals\Soda Pop (90) (Instrumental) by Stony Pony.wav,soda pop,active,instrumental,2,90,add,52,50,102,107,112,107,0,3,3,0,0,11,11,12,,,,,,,,,,,,,,,,,,,,,,,,,,,,,,,400.1010180999983,400.1010180999983,400.1010180999983,400.1010180999983,400.1010180999983,0.010191600002144696,400.1010180999983,True,-0.11222222222222222,-0.40444444444444444,1,0,0,ansTwo,,,,,,,,,,,,,,,,002,2022-11-01_15h27.43.086,musicalMathTest,2022.2.0,59.95998270690761,
music\active\instrumentals\Soda Pop (90) (Instrumental) by Stony Pony.wav,soda pop,active,instrumental,2,90,add,50,50,100,101,110,106,0,3,3,0,0,12,12,3,,,,,,,,,,,,,,,,,,,,,,,,,,,,,,,403.96604399999705,403.96604399999705,403.96604399999705,403.96604399999705,403.96604399999705,0.00996829999712645,403.96604399999705,True,0.09,-0.39666666666666667,1,0,0,ansThree,,,,,,,,,,,,,,,,002,2022-11-01_15h27.43.086,musicalMathTest,2022.2.0,59.95998270690761,
music\active\instrumentals\Soda Pop (90) (Instrumental) by Stony Pony.wav,soda pop,active,instrumental,2,90,multiply,18,10,180,184,181,185,0,3,3,0,0,13,13,76,,,,,,,,,,,,,,,,,,,,,,,,,,,,,,,405.7156029999969,405.7156029999969,405.7156029999969,405.7156029999969,405.7156029999969,0.010372000000643311,405.7156029999969,True,-0.30666666666666664,-0.4,1,0,0,ansOne,,,,,,,,,,,,,,,,002,2022-11-01_15h27.43.086,musicalMathTest,2022.2.0,59.95998270690761,
music\active\instrumentals\Soda Pop (90) (Instrumental) by Stony Pony.wav,soda pop,active,instrumental,2,90,subtract,48,14,34,42,39,24,0,3,3,0,0,14,14,42,,,,,,,,,,,,,,,,,,,,,,,,,,,,,,,407.86253079999733,407.86253079999733,407.86253079999733,407.86253079999733,407.86253079999733,0.009673700002167607,407.86253079999733,True,-0.3022222222222222,-0.39666666666666667,1,0,0,ansOne,,,,,,,,,,,,,,,,002,2022-11-01_15h27.43.086,musicalMathTest,2022.2.0,59.95998270690761,
music\active\instrumentals\Soda Pop (90) (Instrumental) by Stony Pony.wav,soda pop,active,instrumental,2,90,multiply,5,21,105,107,109,108,0,3,3,0,0,15,15,113,,,,,,,,,,,,,,,,,,,,,,,,,,,,,,,411.9966596999984,411.9966596999984,411.9966596999984,411.9966596999984,411.9966596999984,0.009463900001719594,411.9966596999984,True,-0.10222222222222223,-0.40444444444444444,1,0,0,ansTwo,,,,,,,,,,,,,,,,002,2022-11-01_15h27.43.086,musicalMathTest,2022.2.0,59.95998270690761,
music\active\instrumentals\Soda Pop (90) (Instrumental) by Stony Pony.wav,soda pop,active,instrumental,2,90,multiply,2,5,10,15,18,17,0,3,3,0,0,16,16,83,,,,,,,,,,,,,,,,,,,,,,,,,,,,,,,417.45817519999764,417.45817519999764,417.45817519999764,417.45817519999764,417.45817519999764,0.009381299998494796,417.45817519999764,True,0.09555555555555556,-0.39666666666666667,1,0,0,ansThree,,,,,,,,,,,,,,,,002,2022-11-01_15h27.43.086,musicalMathTest,2022.2.0,59.95998270690761,
music\active\instrumentals\Soda Pop (90) (Instrumental) by Stony Pony.wav,soda pop,active,instrumental,2,90,multiply,21,10,210,217,214,216,0,3,3,0,0,17,17,109,,,,,,,,,,,,,,,,,,,,,,,,,,,,,,,419.52534229999947,419.52534229999947,419.52534229999947,419.52534229999947,419.52534229999947,0.010513700002775295,419.52534229999947,True,-0.29888888888888887,-0.40555555555555556,1,0,0,ansOne,,,,,,,,,,,,,,,,002,2022-11-01_15h27.43.086,musicalMathTest,2022.2.0,59.95998270690761,
music\active\instrumentals\Soda Pop (90) (Instrumental) by Stony Pony.wav,soda pop,active,instrumental,2,90,add,44,43,87,93,97,101,0,3,3,0,0,18,18,5,,,,,,,,,,,,,,,,,,,,,,,,,,,,,,,421.27185149999787,421.27185149999787,421.27185149999787,421.27185149999787,421.27185149999787,0.008875499999703607,421.27185149999787,True,-0.10555555555555556,-0.3988888888888889,1,0,0,ansTwo,,,,,,,,,,,,,,,,002,2022-11-01_15h27.43.086,musicalMathTest,2022.2.0,59.95998270690761,
music\active\instrumentals\Soda Pop (90) (Instrumental) by Stony Pony.wav,soda pop,active,instrumental,2,90,add,25,14,39,42,44,40,0,3,3,0,0,19,19,1,,,,,,,,,,,,,,,,,,,,,,,,,,,,,,,425.8558675999993,425.8558675999993,425.8558675999993,425.8558675999993,425.8558675999993,0.010234900000796188,425.8558675999993,True,-0.29,-0.40444444444444444,1,0,0,ansOne,,,,,,,,,,,,,,,,002,2022-11-01_15h27.43.086,musicalMathTest,2022.2.0,59.95998270690761,
music\active\instrumentals\Soda Pop (90) (Instrumental) by Stony Pony.wav,soda pop,active,instrumental,2,90,subtract,44,43,1,4,2,6,0,3,3,0,0,20,20,36,,,,,,,,,,,,,,,,,,,,,,,,,,,,,,,428.90164939999886,428.90164939999886,428.90164939999886,428.90164939999886,428.90164939999886,0.008532799998647533,428.90164939999886,True,-0.1,-0.4022222222222222,1,0,0,ansTwo,,,,,,,,,,,,,,,,002,2022-11-01_15h27.43.086,musicalMathTest,2022.2.0,59.95998270690761,
music\active\instrumentals\Soda Pop (90) (Instrumental) by Stony Pony.wav,soda pop,active,instrumental,2,90,add,53,49,102,109,107,112,0,3,3,0,0,21,21,13,,,,,,,,,,,,,,,,,,,,,,,,,,,,,,,430.80151509999996,430.80151509999996,430.80151509999996,430.80151509999996,430.80151509999996,0.009229999999661231,430.80151509999996,True,0.09555555555555556,-0.4066666666666667,1,0,0,ansThree,,,,,,,,,,,,,,,,002,2022-11-01_15h27.43.086,musicalMathTest,2022.2.0,59.95998270690761,
music\active\instrumentals\Soda Pop (90) (Instrumental) by Stony Pony.wav,soda pop,active,instrumental,2,90,multiply,21,5,105,107,109,113,0,3,3,0,0,22,22,85,,,,,,,,,,,,,,,,,,,,,,,,,,,,,,,439.0474149999973,439.0474149999973,439.0474149999973,439.0474149999973,439.0474149999973,0.009688000001915498,439.0474149999973,True,-0.30666666666666664,-0.39222222222222225,1,0,0,ansOne,,,,,,,,,,,,,,,,002,2022-11-01_15h27.43.086,musicalMathTest,2022.2.0,59.95998270690761,
music\active\instrumentals\Soda Pop (90) (Instrumental) by Stony Pony.wav,soda pop,active,instrumental,2,90,multiply,18,10,180,182,188,183,0,3,3,0,0,23,23,92,,,,,,,,,,,,,,,,,,,,,,,,,,,,,,,442.379516099998,442.379516099998,442.379516099998,442.379516099998,442.379516099998,0.009426099997654092,442.379516099998,True,0.09333333333333334,-0.3977777777777778,1,0,0,ansThree,,,,,,,,,,,,,,,,002,2022-11-01_15h27.43.086,musicalMathTest,2022.2.0,59.95998270690761,
music\calm\vocals\Rose Gold (90) by Cabri x Sub Q Taneous.wav,rose gold,calm,vocals,2,90,multiply,12,5,60,70,64,63,0,4,4,8,0,0,0,98,,,,,,,,,,,,,,,,,,,,,,,,450.83392559999993,0.036610600000130944,-0.07111111111111111,-0.1411111111111111,1,0,0,453.0719688999998,453.0719688999998,453.0719688999998,453.0719688999998,453.0719688999998,0.04153039999800967,453.0719688999998,True,0.10444444444444445,-0.3977777777777778,1,0,0,ansThree,445.8079328999993,,,,,,,,,,,,,,,002,2022-11-01_15h27.43.086,musicalMathTest,2022.2.0,59.95998270690761,
music\calm\vocals\Rose Gold (90) by Cabri x Sub Q Taneous.wav,rose gold,calm,vocals,2,90,subtract,50,48,2,4,6,7,0,4,4,8,0,1,1,50,,,,,,,,,,,,,,,,,,,,,,,,,,,,,,,456.22047219999877,456.22047219999877,456.22047219999877,456.22047219999877,456.22047219999877,0.008305200000904733,456.22047219999877,True,0.1,-0.3933333333333333,1,0,0,ansThree,,,,,,,,,,,,,,,,002,2022-11-01_15h27.43.086,musicalMathTest,2022.2.0,59.95998270690761,
music\calm\vocals\Rose Gold (90) by Cabri x Sub Q Taneous.wav,rose gold,calm,vocals,2,90,add,52,50,102,107,112,107,0,4,4,8,0,2,2,12,,,,,,,,,,,,,,,,,,,,,,,,,,,,,,,457.9363158999986,457.9363158999986,457.9363158999986,457.9363158999986,457.9363158999986,0.00890380000055302,457.9363158999986,True,-0.2922222222222222,-0.3888888888888889,1,0,0,ansOne,,,,,,,,,,,,,,,,002,2022-11-01_15h27.43.086,musicalMathTest,2022.2.0,59.95998270690761,
music\calm\vocals\Rose Gold (90) by Cabri x Sub Q Taneous.wav,rose gold,calm,vocals,2,90,add,54,49,103,105,109,107,0,4,4,8,0,3,3,0,,,,,,,,,,,,,,,,,,,,,,,,,,,,,,,461.30157319999853,461.30157319999853,461.30157319999853,461.30157319999853,461.30157319999853,0.008313600003020838,461.30157319999853,True,-0.3,-0.39666666666666667,1,0,0,ansOne,,,,,,,,,,,,,,,,002,2022-11-01_15h27.43.086,musicalMathTest,2022.2.0,59.95998270690761,
music\calm\vocals\Rose Gold (90) by Cabri x Sub Q Taneous.wav,rose gold,calm,vocals,2,90,add,50,22,72,74,78,74,0,4,4,8,0,4,4,28,,,,,,,,,,,,,,,,,,,,,,,,,,,,,,,468.9502250000005,468.9502250000005,468.9502250000005,468.9502250000005,468.9502250000005,0.009268300000258023,468.9502250000005,True,0.11555555555555555,-0.38555555555555554,1,0,0,ansThree,,,,,,,,,,,,,,,,002,2022-11-01_15h27.43.086,musicalMathTest,2022.2.0,59.95998270690761,
music\calm\vocals\Rose Gold (90) by Cabri x Sub Q Taneous.wav,rose gold,calm,vocals,2,90,add,48,43,91,99,95,92,0,4,4,8,0,5,5,15,,,,,,,,,,,,,,,,,,,,,,,,,,,,,,,472.7149070999985,472.7149070999985,472.7149070999985,472.7149070999985,472.7149070999985,0.009067100003449013,472.7149070999985,True,0.09888888888888889,-0.39555555555555555,1,0,0,ansThree,,,,,,,,,,,,,,,,002,2022-11-01_15h27.43.086,musicalMathTest,2022.2.0,59.95998270690761,
music\calm\vocals\Rose Gold (90) by Cabri x Sub Q Taneous.wav,rose gold,calm,vocals,2,90,multiply,12,10,120,124,123,128,0,4,4,8,0,6,6,66,,,,,,,,,,,,,,,,,,,,,,,,,,,,,,,477.2643500999984,477.2643500999984,477.2643500999984,477.2643500999984,477.2643500999984,0.009138699999311939,477.2643500999984,True,0.09444444444444444,-0.39666666666666667,1,0,0,ansThree,,,,,,,,,,,,,,,,002,2022-11-01_15h27.43.086,musicalMathTest,2022.2.0,59.95998270690761,
music\calm\vocals\Rose Gold (90) by Cabri x Sub Q Taneous.wav,rose gold,calm,vocals,2,90,add,49,48,97,105,99,101,0,4,4,8,0,7,7,23,,,,,,,,,,,,,,,,,,,,,,,,,,,,,,,478.6110908999981,478.6110908999981,478.6110908999981,478.6110908999981,478.6110908999981,0.008810600000288105,478.6110908999981,True,-0.10666666666666667,-0.4,1,0,0,ansTwo,,,,,,,,,,,,,,,,002,2022-11-01_15h27.43.086,musicalMathTest,2022.2.0,59.95998270690761,
music\calm\vocals\Rose Gold (90) by Cabri x Sub Q Taneous.wav,rose gold,calm,vocals,2,90,multiply,2,12,24,28,31,32,0,4,4,8,0,8,8,86,,,,,,,,,,,,,,,,,,,,,,,,,,,,,,,483.79299909999827,483.79299909999827,483.79299909999827,483.79299909999827,483.79299909999827,0.009046299997862661,483.79299909999827,True,-0.30444444444444446,-0.3933333333333333,1,0,0,ansOne,,,,,,,,,,,,,,,,002,2022-11-01_15h27.43.086,musicalMathTest,2022.2.0,59.95998270690761,
music\calm\vocals\Rose Gold (90) by Cabri x Sub Q Taneous.wav,rose gold,calm,vocals,2,90,subtract,49,48,1,7,6,3,0,4,4,8,0,9,9,54,,,,,,,,,,,,,,,,,,,,,,,,,,,,,,,486.1746089999979,486.1746089999979,486.1746089999979,486.1746089999979,486.1746089999979,0.008706599997822195,486.1746089999979,True,-0.3,-0.39444444444444443,1,0,0,ansOne,,,,,,,,,,,,,,,,002,2022-11-01_15h27.43.086,musicalMathTest,2022.2.0,59.95998270690761,
music\calm\vocals\Rose Gold (90) by Cabri x Sub Q Taneous.wav,rose gold,calm,vocals,2,90,multiply,10,21,210,215,213,217,0,4,4,8,0,10,10,105,,,,,,,,,,,,,,,,,,,,,,,,,,,,,,,488.47522279999976,488.47522279999976,488.47522279999976,488.47522279999976,488.47522279999976,0.009241600000677863,488.47522279999976,True,-0.29888888888888887,-0.3988888888888889,1,0,0,ansOne,,,,,,,,,,,,,,,,002,2022-11-01_15h27.43.086,musicalMathTest,2022.2.0,59.95998270690761,
music\calm\vocals\Rose Gold (90) by Cabri x Sub Q Taneous.wav,rose gold,calm,vocals,2,90,multiply,10,2,20,25,30,25,0,4,4,8,0,11,11,79,,,,,,,,,,,,,,,,,,,,,,,,,,,,,,,490.2051861999971,490.2051861999971,490.2051861999971,490.2051861999971,490.2051861999971,0.008264100000815233,490.2051861999971,True,0.10333333333333333,-0.4011111111111111,1,0,0,ansThree,,,,,,,,,,,,,,,,002,2022-11-01_15h27.43.086,musicalMathTest,2022.2.0,59.95998270690761,
music\calm\vocals\Rose Gold (90) by Cabri x Sub Q Taneous.wav,rose gold,calm,vocals,2,90,multiply,2,5,10,11,18,12,0,4,4,8,0,12,12,99,,,,,,,,,,,,,,,,,,,,,,,,,,,,,,,492.1381787999999,492.1381787999999,492.1381787999999,492.1381787999999,492.1381787999999,0.00886259999970207,492.1381787999999,True,-0.09222222222222222,-0.39666666666666667,1,0,0,ansTwo,,,,,,,,,,,,,,,,002,2022-11-01_15h27.43.086,musicalMathTest,2022.2.0,59.95998270690761,
music\calm\vocals\Rose Gold (90) by Cabri x Sub Q Taneous.wav,rose gold,calm,vocals,2,90,multiply,2,2,4,7,9,5,0,4,4,8,0,13,13,115,,,,,,,,,,,,,,,,,,,,,,,,,,,,,,,493.7869924999977,493.7869924999977,493.7869924999977,493.7869924999977,493.7869924999977,0.008345700000063516,493.7869924999977,True,0.09666666666666666,-0.4033333333333333,1,0,0,ansThree,,,,,,,,,,,,,,,,002,2022-11-01_15h27.43.086,musicalMathTest,2022.2.0,59.95998270690761,
music\calm\vocals\Rose Gold (90) by Cabri x Sub Q Taneous.wav,rose gold,calm,vocals,2,90,add,43,28,71,75,77,81,0,4,4,8,0,14,14,18,,,,,,,,,,,,,,,,,,,,,,,,,,,,,,,496.36933289999797,496.36933289999797,496.36933289999797,496.36933289999797,496.36933289999797,0.008874900002410868,496.36933289999797,False,0.31,-0.40555555555555556,1,0,0,ansFour,,,,,,,,,,,,,,,,002,2022-11-01_15h27.43.086,musicalMathTest,2022.2.0,59.95998270690761,
music\calm\vocals\Rose Gold (90) by Cabri x Sub Q Taneous.wav,rose gold,calm,vocals,2,90,multiply,10,18,180,186,185,187,0,4,4,8,0,15,15,104,,,,,,,,,,,,,,,,,,,,,,,,,,,,,,,499.2838391999976,499.2838391999976,499.2838391999976,499.2838391999976,499.2838391999976,0.008634000001620734,499.2838391999976,True,-0.08888888888888889,-0.39666666666666667,1,0,0,ansTwo,,,,,,,,,,,,,,,,002,2022-11-01_15h27.43.086,musicalMathTest,2022.2.0,59.95998270690761,
music\calm\vocals\Rose Gold (90) by Cabri x Sub Q Taneous.wav,rose gold,calm,vocals,2,90,multiply,18,10,180,182,188,183,0,4,4,8,0,16,16,92,,,,,,,,,,,,,,,,,,,,,,,,,,,,,,,500.98407020000013,500.98407020000013,500.98407020000013,500.98407020000013,500.98407020000013,0.009254299999156501,500.98407020000013,True,0.10777777777777778,-0.3933333333333333,1,0,0,ansThree,,,,,,,,,,,,,,,,002,2022-11-01_15h27.43.086,musicalMathTest,2022.2.0,59.95998270690761,
music\calm\vocals\Rose Gold (90) by Cabri x Sub Q Taneous.wav,rose gold,calm,vocals,2,90,multiply,21,10,210,220,218,216,0,4,4,8,0,17,17,77,,,,,,,,,,,,,,,,,,,,,,,,,,,,,,,502.5985944999993,502.5985944999993,502.5985944999993,502.5985944999993,502.5985944999993,0.019160200001351768,502.5985944999993,True,-0.10222222222222223,-0.39444444444444443,1,0,0,ansTwo,,,,,,,,,,,,,,,,002,2022-11-01_15h27.43.086,musicalMathTest,2022.2.0,59.95998270690761,
music\calm\vocals\Rose Gold (90) by Cabri x Sub Q Taneous.wav,rose gold,calm,vocals,2,90,subtract,43,22,21,27,28,32,0,4,4,8,0,18,18,55,,,,,,,,,,,,,,,,,,,,,,,,,,,,,,,504.04837399999815,504.04837399999815,504.04837399999815,504.04837399999815,504.04837399999815,0.008846699998684926,504.04837399999815,True,-0.2966666666666667,-0.4011111111111111,1,0,0,ansOne,,,,,,,,,,,,,,,,002,2022-11-01_15h27.43.086,musicalMathTest,2022.2.0,59.95998270690761,
music\calm\vocals\Rose Gold (90) by Cabri x Sub Q Taneous.wav,rose gold,calm,vocals,2,90,subtract,49,22,27,29,17,33,0,4,4,8,0,19,19,47,,,,,,,,,,,,,,,,,,,,,,,,,,,,,,,507.8320907999987,507.8320907999987,507.8320907999987,507.8320907999987,507.8320907999987,0.008605300001363503,507.8320907999987,True,-0.31,-0.39666666666666667,1,0,0,ansOne,,,,,,,,,,,,,,,,002,2022-11-01_15h27.43.086,musicalMathTest,2022.2.0,59.95998270690761,
music\calm\vocals\Rose Gold (90) by Cabri x Sub Q Taneous.wav,rose gold,calm,vocals,2,90,multiply,21,10,210,213,214,216,0,4,4,8,0,20,20,69,,,,,,,,,,,,,,,,,,,,,,,,,,,,,,,515.4114792,515.4114792,515.4114792,515.4114792,515.4114792,0.009072400000150083,515.4114792,True,-0.11444444444444445,-0.3988888888888889,1,0,0,ansTwo,,,,,,,,,,,,,,,,002,2022-11-01_15h27.43.086,musicalMathTest,2022.2.0,59.95998270690761,
music\calm\vocals\Rose Gold (90) by Cabri x Sub Q Taneous.wav,rose gold,calm,vocals,2,90,add,28,28,56,62,61,63,0,4,4,8,0,21,21,30,,,,,,,,,,,,,,,,,,,,,,,,,,,,,,,516.776124699998,516.776124699998,516.776124699998,516.776124699998,516.776124699998,0.008574800001952099,516.776124699998,True,-0.3022222222222222,-0.39444444444444443,1,0,0,ansOne,,,,,,,,,,,,,,,,002,2022-11-01_15h27.43.086,musicalMathTest,2022.2.0,59.95998270690761,
music\calm\vocals\Rose Gold (90) by Cabri x Sub Q Taneous.wav,rose gold,calm,vocals,2,90,add,50,50,100,101,110,106,0,4,4,8,0,22,22,3,,,,,,,,,,,,,,,,,,,,,,,,,,,,,,,520.9430914999975,520.9430914999975,520.9430914999975,520.9430914999975,520.9430914999975,0.009477600000536768,520.9430914999975,True,-0.11444444444444445,-0.3977777777777778,1,0,0,ansTwo,,,,,,,,,,,,,,,,002,2022-11-01_15h27.43.086,musicalMathTest,2022.2.0,59.95998270690761,
music\calm\vocals\Rose Gold (90) by Cabri x Sub Q Taneous.wav,rose gold,calm,vocals,2,90,multiply,2,5,10,15,18,17,0,4,4,8,0,23,23,83,,,,,,,,,,,,,,,,,,,,,,,,,,,,,,,522.3236308999985,522.3236308999985,522.3236308999985,522.3236308999985,522.3236308999985,0.008771400000114227,522.3236308999985,True,-0.10111111111111111,-0.39666666666666667,1,0,0,ansTwo,,,,,,,,,,,,,,,,002,2022-11-01_15h27.43.086,musicalMathTest,2022.2.0,59.95998270690761,
music\calm\vocals\Rose Gold (90) by Cabri x Sub Q Taneous.wav,rose gold,calm,vocals,2,90,subtract,50,22,28,29,18,36,0,4,4,8,0,24,24,59,,,,,,,,,,,,,,,,,,,,,,,,,,,,,,,524.3403201999972,524.3403201999972,524.3403201999972,524.3403201999972,524.3403201999972,0.008934500001487322,524.3403201999972,True,0.09888888888888889,-0.40555555555555556,1,0,0,ansThree,,,,,,,,,,,,,,,,002,2022-11-01_15h27.43.086,musicalMathTest,2022.2.0,59.95998270690761,
music\calm\vocals\Rose Gold (90) by Cabri x Sub Q Taneous.wav,rose gold,calm,vocals,2,90,multiply,12,2,24,34,32,34,0,4,4,8,0,25,25,114,,,,,,,,,,,,,,,,,,,,,,,,,,,,,,,538.3484355,538.3484355,538.3484355,538.3484355,538.3484355,0.008349399999133311,538.3484355,True,0.09555555555555556,-0.40555555555555556,1,0,0,ansThree,,,,,,,,,,,,,,,,002,2022-11-01_15h27.43.086,musicalMathTest,2022.2.0,59.95998270690761,
music\active\vocals\Believe It (90) by Ty Magenta.wav,believe it,active,vocals,2,90,add,50,50,100,101,102,107,0,5,5,5,0,0,0,6,,,,,,,,,,,,,,,,,,,,,,,,546.454521599997,0.07011109999803011,0.04666666666666667,-0.2311111111111111,1,0,0,548.2038567999989,548.2038567999989,548.2038567999989,548.2038567999989,548.2038567999989,0.030645700000604847,548.2038567999989,True,-0.11555555555555555,-0.4066666666666667,1,0,0,ansTwo,541.3948363999989,,,,,,,,,,,,,,,002,2022-11-01_15h27.43.086,musicalMathTest,2022.2.0,59.95998270690761,
music\active\vocals\Believe It (90) by Ty Magenta.wav,believe it,active,vocals,2,90,multiply,10,18,180,187,186,184,0,5,5,5,0,1,1,64,,,,,,,,,,,,,,,,,,,,,,,,,,,,,,,549.6782987999977,549.6782987999977,549.6782987999977,549.6782987999977,549.6782987999977,0.009458000000449829,549.6782987999977,True,0.09111111111111111,-0.39222222222222225,1,0,0,ansThree,,,,,,,,,,,,,,,,002,2022-11-01_15h27.43.086,musicalMathTest,2022.2.0,59.95998270690761,
music\active\vocals\Believe It (90) by Ty Magenta.wav,believe it,active,vocals,2,90,multiply,2,10,20,27,29,27,0,5,5,5,0,2,2,91,,,,,,,,,,,,,,,,,,,,,,,,,,,,,,,551.190834099998,551.190834099998,551.190834099998,551.190834099998,551.190834099998,0.00829870000234223,551.190834099998,True,-0.2966666666666667,-0.39222222222222225,1,0,0,ansOne,,,,,,,,,,,,,,,,002,2022-11-01_15h27.43.086,musicalMathTest,2022.2.0,59.95998270690761,
music\active\vocals\Believe It (90) by Ty Magenta.wav,believe it,active,vocals,2,90,subtract,46,43,3,8,6,10,0,5,5,5,0,3,3,33,,,,,,,,,,,,,,,,,,,,,,,,,,,,,,,552.9726864000004,552.9726864000004,552.9726864000004,552.9726864000004,552.9726864000004,0.007884399998147273,552.9726864000004,True,-0.30444444444444446,-0.39222222222222225,1,0,0,ansOne,,,,,,,,,,,,,,,,002,2022-11-01_15h27.43.086,musicalMathTest,2022.2.0,59.95998270690761,
music\active\vocals\Believe It (90) by Ty Magenta.wav,believe it,active,vocals,2,90,multiply,5,21,105,107,109,108,0,5,5,5,0,4,4,113,,,,,,,,,,,,,,,,,,,,,,,,,,,,,,,555.2561936999991,555.2561936999991,555.2561936999991,555.2561936999991,555.2561936999991,0.008676900000864407,555.2561936999991,True,-0.2822222222222222,-0.4011111111111111,1,0,0,ansOne,,,,,,,,,,,,,,,,002,2022-11-01_15h27.43.086,musicalMathTest,2022.2.0,59.95998270690761,
music\active\vocals\Believe It (90) by Ty Magenta.wav,believe it,active,vocals,2,90,multiply,10,18,180,183,184,187,0,5,5,5,0,5,5,80,,,,,,,,,,,,,,,,,,,,,,,,,,,,,,,558.1235918999992,558.1235918999992,558.1235918999992,558.1235918999992,558.1235918999992,0.00879210000130115,558.1235918999992,True,-0.3011111111111111,-0.4,1,0,0,ansOne,,,,,,,,,,,,,,,,002,2022-11-01_15h27.43.086,musicalMathTest,2022.2.0,59.95998270690761,
music\active\vocals\Believe It (90) by Ty Magenta.wav,believe it,active,vocals,2,90,add,22,14,36,38,39,44,0,5,5,5,0,6,6,4,,,,,,,,,,,,,,,,,,,,,,,,,,,,,,,559.8054768999973,559.8054768999973,559.8054768999973,559.8054768999973,559.8054768999973,0.00904889999947045,559.8054768999973,True,0.10333333333333333,-0.4066666666666667,1,0,0,ansThree,,,,,,,,,,,,,,,,002,2022-11-01_15h27.43.086,musicalMathTest,2022.2.0,59.95998270690761,
music\active\vocals\Believe It (90) by Ty Magenta.wav,believe it,active,vocals,2,90,multiply,2,2,4,7,9,5,0,5,5,5,0,7,7,115,,,,,,,,,,,,,,,,,,,,,,,,,,,,,,,563.5532155999972,563.5532155999972,563.5532155999972,563.5532155999972,563.5532155999972,0.007741000001260545,563.5532155999972,True,-0.30777777777777776,-0.4033333333333333,1,0,0,ansOne,,,,,,,,,,,,,,,,002,2022-11-01_15h27.43.086,musicalMathTest,2022.2.0,59.95998270690761,
music\active\vocals\Believe It (90) by Ty Magenta.wav,believe it,active,vocals,2,90,multiply,12,10,120,124,123,128,0,5,5,5,0,8,8,66,,,,,,,,,,,,,,,,,,,,,,,,,,,,,,,565.3703729999979,565.3703729999979,565.3703729999979,565.3703729999979,565.3703729999979,0.00951359999817214,565.3703729999979,True,-0.29555555555555557,-0.4,1,0,0,ansOne,,,,,,,,,,,,,,,,002,2022-11-01_15h27.43.086,musicalMathTest,2022.2.0,59.95998270690761,
music\active\vocals\Believe It (90) by Ty Magenta.wav,believe it,active,vocals,2,90,subtract,49,22,27,29,17,33,0,5,5,5,0,9,9,47,,,,,,,,,,,,,,,,,,,,,,,,,,,,,,,566.9014668999989,566.9014668999989,566.9014668999989,566.9014668999989,566.9014668999989,0.008802799999102717,566.9014668999989,True,-0.3,-0.39555555555555555,1,0,0,ansOne,,,,,,,,,,,,,,,,002,2022-11-01_15h27.43.086,musicalMathTest,2022.2.0,59.95998270690761,
music\active\vocals\Believe It (90) by Ty Magenta.wav,believe it,active,vocals,2,90,multiply,2,2,4,5,10,11,0,5,5,5,0,10,10,87,,,,,,,,,,,,,,,,,,,,,,,,,,,,,,,579.9795874999982,579.9795874999982,579.9795874999982,579.9795874999982,579.9795874999982,0.0080952000025718,579.9795874999982,True,0.09555555555555556,-0.4033333333333333,1,0,0,ansThree,,,,,,,,,,,,,,,,002,2022-11-01_15h27.43.086,musicalMathTest,2022.2.0,59.95998270690761,
music\active\vocals\Believe It (90) by Ty Magenta.wav,believe it,active,vocals,2,90,subtract,22,14,8,14,9,13,0,5,5,5,0,11,11,35,,,,,,,,,,,,,,,,,,,,,,,,,,,,,,,581.594039399999,581.594039399999,581.594039399999,581.594039399999,581.594039399999,0.009545599998091348,581.594039399999,True,-0.10444444444444445,-0.4,1,0,0,ansTwo,,,,,,,,,,,,,,,,002,2022-11-01_15h27.43.086,musicalMathTest,2022.2.0,59.95998270690761,
music\active\vocals\Believe It (90) by Ty Magenta.wav,believe it,active,vocals,2,90,subtract,51,49,2,5,9,3,0,5,5,5,0,12,12,41,,,,,,,,,,,,,,,,,,,,,,,,,,,,,,,588.5901739000001,588.5901739000001,588.5901739000001,588.5901739000001,588.5901739000001,0.008510600000590784,588.5901739000001,True,0.10444444444444445,-0.4022222222222222,1,0,0,ansThree,,,,,,,,,,,,,,,,002,2022-11-01_15h27.43.086,musicalMathTest,2022.2.0,59.95998270690761,
music\active\vocals\Believe It (90) by Ty Magenta.wav,believe it,active,vocals,2,90,subtract,49,25,24,29,25,14,0,5,5,5,0,13,13,60,,,,,,,,,,,,,,,,,,,,,,,,,,,,,,,593.5058446999974,593.5058446999974,593.5058446999974,593.5058446999974,593.5058446999974,0.009282499999244465,593.5058446999974,True,-0.2911111111111111,-0.4033333333333333,1,0,0,ansOne,,,,,,,,,,,,,,,,002,2022-11-01_15h27.43.086,musicalMathTest,2022.2.0,59.95998270690761,
music\active\vocals\Believe It (90) by Ty Magenta.wav,believe it,active,vocals,2,90,subtract,50,50,0,5,7,2,0,5,5,5,0,14,14,34,,,,,,,,,,,,,,,,,,,,,,,,,,,,,,,600.9848552000003,600.9848552000003,600.9848552000003,600.9848552000003,600.9848552000003,0.008662799999001436,600.9848552000003,True,-0.2922222222222222,-0.4022222222222222,1,0,0,ansOne,,,,,,,,,,,,,,,,002,2022-11-01_15h27.43.086,musicalMathTest,2022.2.0,59.95998270690761,
music\active\vocals\Believe It (90) by Ty Magenta.wav,believe it,active,vocals,2,90,multiply,10,2,20,30,21,25,0,5,5,5,0,15,15,103,,,,,,,,,,,,,,,,,,,,,,,,,,,,,,,602.5185801999978,602.5185801999978,602.5185801999978,602.5185801999978,602.5185801999978,0.008483500001602806,602.5185801999978,True,-0.29333333333333333,-0.4011111111111111,1,0,0,ansOne,,,,,,,,,,,,,,,,002,2022-11-01_15h27.43.086,musicalMathTest,2022.2.0,59.95998270690761,
music\active\vocals\Believe It (90) by Ty Magenta.wav,believe it,active,vocals,2,90,subtract,48,14,34,42,39,24,0,5,5,5,0,16,16,42,,,,,,,,,,,,,,,,,,,,,,,,,,,,,,,603.6356500999973,603.6356500999973,603.6356500999973,603.6356500999973,603.6356500999973,0.008827800000290154,603.6356500999973,True,0.10777777777777778,-0.40444444444444444,1,0,0,ansThree,,,,,,,,,,,,,,,,002,2022-11-01_15h27.43.086,musicalMathTest,2022.2.0,59.95998270690761,
music\active\vocals\Believe It (90) by Ty Magenta.wav,believe it,active,vocals,2,90,add,28,28,56,62,61,63,0,5,5,5,0,17,17,30,,,,,,,,,,,,,,,,,,,,,,,,,,,,,,,610.8811355999969,610.8811355999969,610.8811355999969,610.8811355999969,610.8811355999969,0.008691700000781566,610.8811355999969,True,-0.3,-0.4122222222222222,1,0,0,ansOne,,,,,,,,,,,,,,,,002,2022-11-01_15h27.43.086,musicalMathTest,2022.2.0,59.95998270690761,
music\active\vocals\Believe It (90) by Ty Magenta.wav,believe it,active,vocals,2,90,multiply,18,5,90,93,100,98,0,5,5,5,0,18,18,100,,,,,,,,,,,,,,,,,,,,,,,,,,,,,,,614.7126411999998,614.7126411999998,614.7126411999998,614.7126411999998,614.7126411999998,0.008821899999020388,614.7126411999998,True,-0.11333333333333333,-0.4,1,0,0,ansTwo,,,,,,,,,,,,,,,,002,2022-11-01_15h27.43.086,musicalMathTest,2022.2.0,59.95998270690761,
music\active\vocals\Believe It (90) by Ty Magenta.wav,believe it,active,vocals,2,90,subtract,48,48,0,6,8,4,0,5,5,5,0,19,19,58,,,,,,,,,,,,,,,,,,,,,,,,,,,,,,,620.4927594000001,620.4927594000001,620.4927594000001,620.4927594000001,620.4927594000001,0.008005100000445964,620.4927594000001,True,0.09222222222222222,-0.4033333333333333,1,0,0,ansThree,,,,,,,,,,,,,,,,002,2022-11-01_15h27.43.086,musicalMathTest,2022.2.0,59.95998270690761,
music\active\vocals\Believe It (90) by Ty Magenta.wav,believe it,active,vocals,2,90,subtract,50,22,28,29,18,36,0,5,5,5,0,20,20,59,,,,,,,,,,,,,,,,,,,,,,,,,,,,,,,622.5106038999984,622.5106038999984,622.5106038999984,622.5106038999984,622.5106038999984,0.009613999998691725,622.5106038999984,True,-0.10666666666666667,-0.4022222222222222,1,0,0,ansTwo,,,,,,,,,,,,,,,,002,2022-11-01_15h27.43.086,musicalMathTest,2022.2.0,59.95998270690761,
music\active\vocals\Believe It (90) by Ty Magenta.wav,believe it,active,vocals,2,90,add,48,43,91,99,95,92,0,5,5,5,0,21,21,15,,,,,,,,,,,,,,,,,,,,,,,,,,,,,,,628.3900928999974,628.3900928999974,628.3900928999974,628.3900928999974,628.3900928999974,0.008536599998478778,628.3900928999974,True,-0.2966666666666667,-0.4033333333333333,1,0,0,ansOne,,,,,,,,,,,,,,,,002,2022-11-01_15h27.43.086,musicalMathTest,2022.2.0,59.95998270690761,
music\active\vocals\Believe It (90) by Ty Magenta.wav,believe it,active,vocals,2,90,multiply,2,5,10,15,18,17,0,5,5,5,0,22,22,83,,,,,,,,,,,,,,,,,,,,,,,,,,,,,,,632.6378617999981,632.6378617999981,632.6378617999981,632.6378617999981,632.6378617999981,0.008880999997927574,632.6378617999981,True,-0.09111111111111111,-0.3988888888888889,1,0,0,ansTwo,,,,,,,,,,,,,,,,002,2022-11-01_15h27.43.086,musicalMathTest,2022.2.0,59.95998270690761,
music\active\vocals\Believe It (90) by Ty Magenta.wav,believe it,active,vocals,2,90,multiply,2,10,20,22,23,30,0,5,5,5,0,23,23,75,,,,,,,,,,,,,,,,,,,,,,,,,,,,,,,634.019140299999,634.019140299999,634.019140299999,634.019140299999,634.019140299999,0.008844399999361485,634.019140299999,True,-0.30777777777777776,-0.40444444444444444,1,0,0,ansOne,,,,,,,,,,,,,,,,002,2022-11-01_15h27.43.086,musicalMathTest,2022.2.0,59.95998270690761,
music\active\vocals\Believe It (90) by Ty Magenta.wav,believe it,active,vocals,2,90,add,54,49,103,105,109,107,0,5,5,5,0,24,24,0,,,,,,,,,,,,,,,,,,,,,,,,,,,,,,,635.753857599997,635.753857599997,635.753857599997,635.753857599997,635.753857599997,0.01113209999675746,635.753857599997,True,-0.10222222222222223,-0.39111111111111113,1,0,0,ansTwo,,,,,,,,,,,,,,,,002,2022-11-01_15h27.43.086,musicalMathTest,2022.2.0,59.95998270690761,
music\silence.wav,silent,silent,silent,2,90,add,51,49,100,102,104,108,0,6,6,9,0,0,0,10,,,,,,,,,,,,,,,,,,,,,,,,655.4875609999981,0.05597520000083023,-0.06666666666666667,-0.29,1,0,0,658.0650720999984,658.0650720999984,658.0650720999984,658.0650720999984,658.0650720999984,0.02713900000162539,658.0650720999984,True,-0.3,-0.41,1,0,0,ansOne,650.4418541999985,,,,,,,,,,,,,,,002,2022-11-01_15h27.43.086,musicalMathTest,2022.2.0,59.95998270690761,
music\silence.wav,silent,silent,silent,2,90,subtract,26,25,1,7,9,7,0,6,6,9,0,1,1,48,,,,,,,,,,,,,,,,,,,,,,,,,,,,,,,662.9048708999981,662.9048708999981,662.9048708999981,662.9048708999981,662.9048708999981,0.008142700000462355,662.9048708999981,True,-0.1,-0.3977777777777778,1,0,0,ansTwo,,,,,,,,,,,,,,,,002,2022-11-01_15h27.43.086,musicalMathTest,2022.2.0,59.95998270690761,
music\silence.wav,silent,silent,silent,2,90,add,46,43,89,92,91,99,0,6,6,9,0,2,2,2,,,,,,,,,,,,,,,,,,,,,,,,,,,,,,,668.9514219999983,668.9514219999983,668.9514219999983,668.9514219999983,668.9514219999983,0.008658999999170192,668.9514219999983,True,-0.29333333333333333,-0.3988888888888889,1,0,0,ansOne,,,,,,,,,,,,,,,,002,2022-11-01_15h27.43.086,musicalMathTest,2022.2.0,59.95998270690761,
music\silence.wav,silent,silent,silent,2,90,multiply,10,21,210,215,220,224,0,6,6,9,0,3,3,81,,,,,,,,,,,,,,,,,,,,,,,,,,,,,,,675.3848208999989,675.3848208999989,675.3848208999989,675.3848208999989,675.3848208999989,0.010349700001825113,675.3848208999989,True,-0.11888888888888889,-0.3988888888888889,1,0,0,ansTwo,,,,,,,,,,,,,,,,002,2022-11-01_15h27.43.086,musicalMathTest,2022.2.0,59.95998270690761,
music\silence.wav,silent,silent,silent,2,90,subtract,50,50,0,7,5,8,0,6,6,9,0,4,4,37,,,,,,,,,,,,,,,,,,,,,,,,,,,,,,,677.3830749999979,677.3830749999979,677.3830749999979,677.3830749999979,677.3830749999979,0.008662299998832168,677.3830749999979,True,-0.3011111111111111,-0.4088888888888889,1,0,0,ansOne,,,,,,,,,,,,,,,,002,2022-11-01_15h27.43.086,musicalMathTest,2022.2.0,59.95998270690761,
music\silence.wav,silent,silent,silent,2,90,multiply,21,10,210,220,218,216,0,6,6,9,0,5,5,77,,,,,,,,,,,,,,,,,,,,,,,,,,,,,,,678.9573203999971,678.9573203999971,678.9573203999971,678.9573203999971,678.9573203999971,0.027841300001455238,678.9573203999971,True,-0.3,-0.3988888888888889,1,0,0,ansOne,,,,,,,,,,,,,,,,002,2022-11-01_15h27.43.086,musicalMathTest,2022.2.0,59.95998270690761,
music\silence.wav,silent,silent,silent,2,90,subtract,52,50,2,3,4,5,0,6,6,9,0,6,6,43,,,,,,,,,,,,,,,,,,,,,,,,,,,,,,,680.5463420999986,680.5463420999986,680.5463420999986,680.5463420999986,680.5463420999986,0.007992900002136594,680.5463420999986,True,-0.09777777777777778,-0.3988888888888889,1,0,0,ansTwo,,,,,,,,,,,,,,,,002,2022-11-01_15h27.43.086,musicalMathTest,2022.2.0,59.95998270690761,
music\silence.wav,silent,silent,silent,2,90,subtract,28,14,14,20,22,26,0,6,6,9,0,7,7,45,,,,,,,,,,,,,,,,,,,,,,,,,,,,,,,685.5127914000004,685.5127914000004,685.5127914000004,685.5127914000004,685.5127914000004,0.009055500002432382,685.5127914000004,True,0.11222222222222222,-0.4077777777777778,1,0,0,ansThree,,,,,,,,,,,,,,,,002,2022-11-01_15h27.43.086,musicalMathTest,2022.2.0,59.95998270690761,
music\silence.wav,silent,silent,silent,2,90,multiply,2,10,20,21,26,22,0,6,6,9,0,8,8,67,,,,,,,,,,,,,,,,,,,,,,,,,,,,,,,690.5604813999998,690.5604813999998,690.5604813999998,690.5604813999998,690.5604813999998,0.009203000001434702,690.5604813999998,True,-0.3111111111111111,-0.3977777777777778,1,0,0,ansOne,,,,,,,,,,,,,,,,002,2022-11-01_15h27.43.086,musicalMathTest,2022.2.0,59.95998270690761,
music\silence.wav,silent,silent,silent,2,90,multiply,2,10,20,27,29,27,0,6,6,9,0,9,9,91,,,,,,,,,,,,,,,,,,,,,,,,,,,,,,,692.2547159999995,692.2547159999995,692.2547159999995,692.2547159999995,692.2547159999995,0.006156399998872075,692.2547159999995,True,0.09666666666666666,-0.39666666666666667,1,0,0,ansThree,,,,,,,,,,,,,,,,002,2022-11-01_15h27.43.086,musicalMathTest,2022.2.0,59.95998270690761,
music\silence.wav,silent,silent,silent,2,90,subtract,51,49,2,5,9,3,0,6,6,9,0,10,10,41,,,,,,,,,,,,,,,,,,,,,,,,,,,,,,,693.8730738999984,693.8730738999984,693.8730738999984,693.8730738999984,693.8730738999984,0.008249499998782994,693.8730738999984,True,-0.3011111111111111,-0.3933333333333333,1,0,0,ansOne,,,,,,,,,,,,,,,,002,2022-11-01_15h27.43.086,musicalMathTest,2022.2.0,59.95998270690761,
music\silence.wav,silent,silent,silent,2,90,multiply,5,12,60,61,66,64,0,6,6,9,0,11,11,70,,,,,,,,,,,,,,,,,,,,,,,,,,,,,,,695.8888518999993,695.8888518999993,695.8888518999993,695.8888518999993,695.8888518999993,0.008712200000445591,695.8888518999993,True,0.10222222222222223,-0.4022222222222222,1,0,0,ansThree,,,,,,,,,,,,,,,,002,2022-11-01_15h27.43.086,musicalMathTest,2022.2.0,59.95998270690761,
music\silence.wav,silent,silent,silent,2,90,multiply,12,2,24,34,32,34,0,6,6,9,0,12,12,114,,,,,,,,,,,,,,,,,,,,,,,,,,,,,,,698.9374736999998,698.9374736999998,698.9374736999998,698.9374736999998,698.9374736999998,0.008652500000607688,698.9374736999998,True,0.09888888888888889,-0.4066666666666667,1,0,0,ansThree,,,,,,,,,,,,,,,,002,2022-11-01_15h27.43.086,musicalMathTest,2022.2.0,59.95998270690761,
music\silence.wav,silent,silent,silent,2,90,add,28,14,42,47,43,46,0,6,6,9,0,13,13,14,,,,,,,,,,,,,,,,,,,,,,,,,,,,,,,701.7552299999988,701.7552299999988,701.7552299999988,701.7552299999988,701.7552299999988,0.009299599998485064,701.7552299999988,True,0.09888888888888889,-0.4066666666666667,1,0,0,ansThree,,,,,,,,,,,,,,,,002,2022-11-01_15h27.43.086,musicalMathTest,2022.2.0,59.95998270690761,
music\silence.wav,silent,silent,silent,2,90,multiply,10,21,210,216,215,219,0,6,6,9,0,14,14,65,,,,,,,,,,,,,,,,,,,,,,,,,,,,,,,711.8481867999981,711.8481867999981,711.8481867999981,711.8481867999981,711.8481867999981,0.008747100000618957,711.8481867999981,True,-0.10888888888888888,-0.4022222222222222,1,0,0,ansTwo,,,,,,,,,,,,,,,,002,2022-11-01_15h27.43.086,musicalMathTest,2022.2.0,59.95998270690761,
music\silence.wav,silent,silent,silent,2,90,subtract,50,48,2,4,6,7,0,6,6,9,0,15,15,50,,,,,,,,,,,,,,,,,,,,,,,,,,,,,,,714.8693224999988,714.8693224999988,714.8693224999988,714.8693224999988,714.8693224999988,0.010771000001113862,714.8693224999988,True,0.10555555555555556,-0.4011111111111111,1,0,0,ansThree,,,,,,,,,,,,,,,,002,2022-11-01_15h27.43.086,musicalMathTest,2022.2.0,59.95998270690761,
music\silence.wav,silent,silent,silent,2,90,subtract,48,43,5,7,10,14,0,6,6,9,0,16,16,46,,,,,,,,,,,,,,,,,,,,,,,,,,,,,,,717.0285484999986,717.0285484999986,717.0285484999986,717.0285484999986,717.0285484999986,0.008409800000663381,717.0285484999986,True,-0.30444444444444446,-0.4077777777777778,1,0,0,ansOne,,,,,,,,,,,,,,,,002,2022-11-01_15h27.43.086,musicalMathTest,2022.2.0,59.95998270690761,
music\silence.wav,silent,silent,silent,2,90,multiply,10,18,180,183,184,187,0,6,6,9,0,17,17,80,,,,,,,,,,,,,,,,,,,,,,,,,,,,,,,720.2303902999993,720.2303902999993,720.2303902999993,720.2303902999993,720.2303902999993,0.009156399999483256,720.2303902999993,True,0.09555555555555556,-0.40444444444444444,1,0,0,ansThree,,,,,,,,,,,,,,,,002,2022-11-01_15h27.43.086,musicalMathTest,2022.2.0,59.95998270690761,
music\silence.wav,silent,silent,silent,2,90,add,48,43,91,93,92,96,0,6,6,9,0,18,18,8,,,,,,,,,,,,,,,,,,,,,,,,,,,,,,,722.1592695999971,722.1592695999971,722.1592695999971,722.1592695999971,722.1592695999971,0.00872700000036275,722.1592695999971,True,-0.31222222222222223,-0.4033333333333333,1,0,0,ansOne,,,,,,,,,,,,,,,,002,2022-11-01_15h27.43.086,musicalMathTest,2022.2.0,59.95998270690761,
music\silence.wav,silent,silent,silent,2,90,multiply,2,2,4,5,10,11,0,6,6,9,0,19,19,87,,,,,,,,,,,,,,,,,,,,,,,,,,,,,,,726.8085979999996,726.8085979999996,726.8085979999996,726.8085979999996,726.8085979999996,0.009454400002141483,726.8085979999996,True,0.09444444444444444,-0.4033333333333333,1,0,0,ansThree,,,,,,,,,,,,,,,,002,2022-11-01_15h27.43.086,musicalMathTest,2022.2.0,59.95998270690761,
music\silence.wav,silent,silent,silent,2,90,multiply,21,2,42,45,44,45,0,6,6,9,0,20,20,117,,,,,,,,,,,,,,,,,,,,,,,,,,,,,,,728.789417699998,728.789417699998,728.789417699998,728.789417699998,728.789417699998,0.008727700002054917,728.789417699998,True,-0.10444444444444445,-0.4033333333333333,1,0,0,ansTwo,,,,,,,,,,,,,,,,002,2022-11-01_15h27.43.086,musicalMathTest,2022.2.0,59.95998270690761,
music\silence.wav,silent,silent,silent,2,90,multiply,2,2,4,7,9,5,0,6,6,9,0,21,21,115,,,,,,,,,,,,,,,,,,,,,,,,,,,,,,,733.1891464999972,733.1891464999972,733.1891464999972,733.1891464999972,733.1891464999972,0.008528900001692818,733.1891464999972,True,-0.3,-0.40555555555555556,1,0,0,ansOne,,,,,,,,,,,,,,,,002,2022-11-01_15h27.43.086,musicalMathTest,2022.2.0,59.95998270690761,
music\silence.wav,silent,silent,silent,2,90,multiply,18,10,180,190,184,182,0,6,6,9,0,22,22,68,,,,,,,,,,,,,,,,,,,,,,,,,,,,,,,734.8870669999997,734.8870669999997,734.8870669999997,734.8870669999997,734.8870669999997,0.009234299999661744,734.8870669999997,True,-0.11333333333333333,-0.3933333333333333,1,0,0,ansTwo,,,,,,,,,,,,,,,,002,2022-11-01_15h27.43.086,musicalMathTest,2022.2.0,59.95998270690761,
music\silence.wav,silent,silent,silent,2,90,subtract,22,22,0,5,4,5,0,6,6,9,0,23,23,51,,,,,,,,,,,,,,,,,,,,,,,,,,,,,,,736.4031271999993,736.4031271999993,736.4031271999993,736.4031271999993,736.4031271999993,0.009122999999817694,736.4031271999993,True,-0.10666666666666667,-0.4,1,0,0,ansTwo,,,,,,,,,,,,,,,,002,2022-11-01_15h27.43.086,musicalMathTest,2022.2.0,59.95998270690761,
music\silence.wav,silent,silent,silent,2,90,add,26,25,51,55,57,61,0,6,6,9,0,24,24,17,,,,,,,,,,,,,,,,,,,,,,,,,,,,,,,737.6366452999973,737.6366452999973,737.6366452999973,737.6366452999973,737.6366452999973,0.008469700002024183,737.6366452999973,True,0.09,-0.4,1,0,0,ansThree,,,,,,,,,,,,,,,,002,2022-11-01_15h27.43.086,musicalMathTest,2022.2.0,59.95998270690761,
music\silence.wav,silent,silent,silent,2,90,add,43,25,68,70,71,73,0,6,6,9,0,25,25,21,,,,,,,,,,,,,,,,,,,,,,,,,,,,,,,743.9171030999969,743.9171030999969,743.9171030999969,743.9171030999969,743.9171030999969,0.008529000002454268,743.9171030999969,True,0.09,-0.4,1,0,0,ansThree,,,,,,,,,,,,,,,,002,2022-11-01_15h27.43.086,musicalMathTest,2022.2.0,59.95998270690761,
music\active\vocals\Someone Like You (90) (Chorus Vocals) by Poison Beaches.wav,someone like you,active,vocals,2,90,add,50,50,100,101,110,106,0,7,7,1,0,0,0,3,,,,,,,,,,,,,,,,,,,,,,,,753.4604397999974,0.10894109999935608,-0.11333333333333333,-0.22,1,0,0,754.5756058999978,754.5756058999978,754.5756058999978,754.5756058999978,754.5756058999978,0.032506999999895925,754.5756058999978,True,0.09555555555555556,-0.39555555555555555,1,0,0,ansThree,748.3610803999982,,,,,,,,,,,,,,,002,2022-11-01_15h27.43.086,musicalMathTest,2022.2.0,59.95998270690761,
music\active\vocals\Someone Like You (90) (Chorus Vocals) by Poison Beaches.wav,someone like you,active,vocals,2,90,add,46,43,89,92,91,99,0,7,7,1,0,1,1,2,,,,,,,,,,,,,,,,,,,,,,,,,,,,,,,756.3928493999992,756.3928493999992,756.3928493999992,756.3928493999992,756.3928493999992,0.009032300000399118,756.3928493999992,True,-0.30777777777777776,-0.39444444444444443,1,0,0,ansOne,,,,,,,,,,,,,,,,002,2022-11-01_15h27.43.086,musicalMathTest,2022.2.0,59.95998270690761,
music\active\vocals\Someone Like You (90) (Chorus Vocals) by Poison Beaches.wav,someone like you,active,vocals,2,90,subtract,28,28,0,3,5,3,0,7,7,1,0,2,2,61,,,,,,,,,,,,,,,,,,,,,,,,,,,,,,,761.0032309999988,761.0032309999988,761.0032309999988,761.0032309999988,761.0032309999988,0.01744459999827086,761.0032309999988,True,-0.3022222222222222,-0.39222222222222225,1,0,0,ansOne,,,,,,,,,,,,,,,,002,2022-11-01_15h27.43.086,musicalMathTest,2022.2.0,59.95998270690761,
music\active\vocals\Someone Like You (90) (Chorus Vocals) by Poison Beaches.wav,someone like you,active,vocals,2,90,multiply,10,12,120,125,126,128,0,7,7,1,0,3,3,62,,,,,,,,,,,,,,,,,,,,,,,,,,,,,,,762.621458499998,762.621458499998,762.621458499998,762.621458499998,762.621458499998,0.008357400001841597,762.621458499998,True,-0.10333333333333333,-0.39222222222222225,1,0,0,ansTwo,,,,,,,,,,,,,,,,002,2022-11-01_15h27.43.086,musicalMathTest,2022.2.0,59.95998270690761,
music\active\vocals\Someone Like You (90) (Chorus Vocals) by Poison Beaches.wav,someone like you,active,vocals,2,90,multiply,10,18,180,188,190,194,0,7,7,1,0,4,4,96,,,,,,,,,,,,,,,,,,,,,,,,,,,,,,,764.6545525999973,764.6545525999973,764.6545525999973,764.6545525999973,764.6545525999973,0.008786500002315734,764.6545525999973,True,0.08222222222222222,-0.39444444444444443,1,0,0,ansThree,,,,,,,,,,,,,,,,002,2022-11-01_15h27.43.086,musicalMathTest,2022.2.0,59.95998270690761,
music\active\vocals\Someone Like You (90) (Chorus Vocals) by Poison Beaches.wav,someone like you,active,vocals,2,90,add,48,43,91,93,92,96,0,7,7,1,0,5,5,8,,,,,,,,,,,,,,,,,,,,,,,,,,,,,,,766.7722647999981,766.7722647999981,766.7722647999981,766.7722647999981,766.7722647999981,0.009094000000914093,766.7722647999981,True,-0.10111111111111111,-0.4033333333333333,1,0,0,ansTwo,,,,,,,,,,,,,,,,002,2022-11-01_15h27.43.086,musicalMathTest,2022.2.0,59.95998270690761,
music\active\vocals\Someone Like You (90) (Chorus Vocals) by Poison Beaches.wav,someone like you,active,vocals,2,90,add,50,25,75,80,77,85,0,7,7,1,0,6,6,25,,,,,,,,,,,,,,,,,,,,,,,,,,,,,,,769.5532510999983,769.5532510999983,769.5532510999983,769.5532510999983,769.5532510999983,0.00893789999827277,769.5532510999983,True,0.10222222222222223,-0.40555555555555556,1,0,0,ansThree,,,,,,,,,,,,,,,,002,2022-11-01_15h27.43.086,musicalMathTest,2022.2.0,59.95998270690761,
music\active\vocals\Someone Like You (90) (Chorus Vocals) by Poison Beaches.wav,someone like you,active,vocals,2,90,multiply,10,21,210,215,213,217,0,7,7,1,0,7,7,105,,,,,,,,,,,,,,,,,,,,,,,,,,,,,,,773.1514929999976,773.1514929999976,773.1514929999976,773.1514929999976,773.1514929999976,0.008584700000938028,773.1514929999976,True,-0.10111111111111111,-0.4077777777777778,1,0,0,ansTwo,,,,,,,,,,,,,,,,002,2022-11-01_15h27.43.086,musicalMathTest,2022.2.0,59.95998270690761,
music\active\vocals\Someone Like You (90) (Chorus Vocals) by Poison Beaches.wav,someone like you,active,vocals,2,90,subtract,54,49,5,12,7,6,0,7,7,1,0,8,8,31,,,,,,,,,,,,,,,,,,,,,,,,,,,,,,,774.867578399997,774.867578399997,774.867578399997,774.867578399997,774.867578399997,0.008711799997399794,774.867578399997,True,-0.29555555555555557,-0.4011111111111111,1,0,0,ansOne,,,,,,,,,,,,,,,,002,2022-11-01_15h27.43.086,musicalMathTest,2022.2.0,59.95998270690761,
music\active\vocals\Someone Like You (90) (Chorus Vocals) by Poison Beaches.wav,someone like you,active,vocals,2,90,add,26,25,51,55,57,61,0,7,7,1,0,9,9,17,,,,,,,,,,,,,,,,,,,,,,,,,,,,,,,783.3629344999972,783.3629344999972,783.3629344999972,783.3629344999972,783.3629344999972,0.00873199999841745,783.3629344999972,True,-0.09444444444444444,-0.4011111111111111,1,0,0,ansTwo,,,,,,,,,,,,,,,,002,2022-11-01_15h27.43.086,musicalMathTest,2022.2.0,59.95998270690761,
music\active\vocals\Someone Like You (90) (Chorus Vocals) by Poison Beaches.wav,someone like you,active,vocals,2,90,multiply,10,2,20,25,30,25,0,7,7,1,0,10,10,79,,,,,,,,,,,,,,,,,,,,,,,,,,,,,,,787.5294414999989,787.5294414999989,787.5294414999989,787.5294414999989,787.5294414999989,0.008801799998764182,787.5294414999989,True,0.09333333333333334,-0.39555555555555555,1,0,0,ansThree,,,,,,,,,,,,,,,,002,2022-11-01_15h27.43.086,musicalMathTest,2022.2.0,59.95998270690761,
music\active\vocals\Someone Like You (90) (Chorus Vocals) by Poison Beaches.wav,someone like you,active,vocals,2,90,multiply,12,5,60,70,64,63,0,7,7,1,0,11,11,98,,,,,,,,,,,,,,,,,,,,,,,,,,,,,,,789.6955204999977,789.6955204999977,789.6955204999977,789.6955204999977,789.6955204999977,0.008860799996909918,789.6955204999977,True,-0.09555555555555556,-0.4066666666666667,1,0,0,ansTwo,,,,,,,,,,,,,,,,002,2022-11-01_15h27.43.086,musicalMathTest,2022.2.0,59.95998270690761,
music\active\vocals\Someone Like You (90) (Chorus Vocals) by Poison Beaches.wav,someone like you,active,vocals,2,90,multiply,18,10,180,186,184,186,0,7,7,1,0,12,12,108,,,,,,,,,,,,,,,,,,,,,,,,,,,,,,,793.3599350999975,793.3599350999975,793.3599350999975,793.3599350999975,793.3599350999975,0.00893010000072536,793.3599350999975,True,-0.09555555555555556,-0.4066666666666667,1,0,0,ansTwo,,,,,,,,,,,,,,,,002,2022-11-01_15h27.43.086,musicalMathTest,2022.2.0,59.95998270690761,
music\active\vocals\Someone Like You (90) (Chorus Vocals) by Poison Beaches.wav,someone like you,active,vocals,2,90,add,50,50,100,101,102,107,0,7,7,1,0,13,13,6,,,,,,,,,,,,,,,,,,,,,,,,,,,,,,,794.5255218999991,794.5255218999991,794.5255218999991,794.5255218999991,794.5255218999991,0.009431300000869669,794.5255218999991,True,0.10666666666666667,-0.4066666666666667,1,0,0,ansThree,,,,,,,,,,,,,,,,002,2022-11-01_15h27.43.086,musicalMathTest,2022.2.0,59.95998270690761,
music\active\vocals\Someone Like You (90) (Chorus Vocals) by Poison Beaches.wav,someone like you,active,vocals,2,90,add,49,22,71,76,81,76,0,7,7,1,0,14,14,16,,,,,,,,,,,,,,,,,,,,,,,,,,,,,,,796.3399041999983,796.3399041999983,796.3399041999983,796.3399041999983,796.3399041999983,0.00925469999856432,796.3399041999983,True,-0.1,-0.41333333333333333,1,0,0,ansTwo,,,,,,,,,,,,,,,,002,2022-11-01_15h27.43.086,musicalMathTest,2022.2.0,59.95998270690761,
music\active\vocals\Someone Like You (90) (Chorus Vocals) by Poison Beaches.wav,someone like you,active,vocals,2,90,add,53,49,102,109,107,112,0,7,7,1,0,15,15,13,,,,,,,,,,,,,,,,,,,,,,,,,,,,,,,802.6889731999981,802.6889731999981,802.6889731999981,802.6889731999981,802.6889731999981,0.008918700001231628,802.6889731999981,True,-0.2966666666666667,-0.3977777777777778,1,0,0,ansOne,,,,,,,,,,,,,,,,002,2022-11-01_15h27.43.086,musicalMathTest,2022.2.0,59.95998270690761,
music\active\vocals\Someone Like You (90) (Chorus Vocals) by Poison Beaches.wav,someone like you,active,vocals,2,90,subtract,48,43,5,7,10,14,0,7,7,1,0,16,16,46,,,,,,,,,,,,,,,,,,,,,,,,,,,,,,,807.3353337999979,807.3353337999979,807.3353337999979,807.3353337999979,807.3353337999979,0.009415600001375424,807.3353337999979,True,-0.30333333333333334,-0.3888888888888889,1,0,0,ansOne,,,,,,,,,,,,,,,,002,2022-11-01_15h27.43.086,musicalMathTest,2022.2.0,59.95998270690761,
music\active\vocals\Someone Like You (90) (Chorus Vocals) by Poison Beaches.wav,someone like you,active,vocals,2,90,multiply,2,10,20,27,29,27,0,7,7,1,0,17,17,91,,,,,,,,,,,,,,,,,,,,,,,,,,,,,,,812.5649746999989,812.5649746999989,812.5649746999989,812.5649746999989,812.5649746999989,0.008277699998870958,812.5649746999989,True,-0.28888888888888886,-0.4,1,0,0,ansOne,,,,,,,,,,,,,,,,002,2022-11-01_15h27.43.086,musicalMathTest,2022.2.0,59.95998270690761,
music\active\vocals\Someone Like You (90) (Chorus Vocals) by Poison Beaches.wav,someone like you,active,vocals,2,90,add,52,50,102,107,112,107,0,7,7,1,0,18,18,12,,,,,,,,,,,,,,,,,,,,,,,,,,,,,,,813.7713436999984,813.7713436999984,813.7713436999984,813.7713436999984,813.7713436999984,0.06515519999811659,813.7713436999984,True,-0.10111111111111111,-0.40444444444444444,1,0,0,ansTwo,,,,,,,,,,,,,,,,002,2022-11-01_15h27.43.086,musicalMathTest,2022.2.0,59.95998270690761,
music\active\vocals\Someone Like You (90) (Chorus Vocals) by Poison Beaches.wav,someone like you,active,vocals,2,90,multiply,5,2,10,11,17,21,0,7,7,1,0,19,19,71,,,,,,,,,,,,,,,,,,,,,,,,,,,,,,,819.2458673999972,819.2458673999972,819.2458673999972,819.2458673999972,819.2458673999972,0.008695700002135709,819.2458673999972,True,-0.30444444444444446,-0.3977777777777778,1,0,0,ansOne,,,,,,,,,,,,,,,,002,2022-11-01_15h27.43.086,musicalMathTest,2022.2.0,59.95998270690761,
music\active\vocals\Someone Like You (90) (Chorus Vocals) by Poison Beaches.wav,someone like you,active,vocals,2,90,multiply,2,12,24,28,31,32,0,7,7,1,0,20,20,86,,,,,,,,,,,,,,,,,,,,,,,,,,,,,,,821.0456223999972,821.0456223999972,821.0456223999972,821.0456223999972,821.0456223999972,0.00897629999963101,821.0456223999972,True,-0.09888888888888889,-0.39444444444444443,1,0,0,ansTwo,,,,,,,,,,,,,,,,002,2022-11-01_15h27.43.086,musicalMathTest,2022.2.0,59.95998270690761,
music\active\vocals\Someone Like You (90) (Chorus Vocals) by Poison Beaches.wav,someone like you,active,vocals,2,90,subtract,54,49,5,8,6,10,0,7,7,1,0,21,21,38,,,,,,,,,,,,,,,,,,,,,,,,,,,,,,,825.0774205999987,825.0774205999987,825.0774205999987,825.0774205999987,825.0774205999987,0.008861300000717165,825.0774205999987,True,-0.3022222222222222,-0.4033333333333333,1,0,0,ansOne,,,,,,,,,,,,,,,,002,2022-11-01_15h27.43.086,musicalMathTest,2022.2.0,59.95998270690761,
music\active\vocals\Someone Like You (90) (Chorus Vocals) by Poison Beaches.wav,someone like you,active,vocals,2,90,subtract,46,43,3,8,6,10,0,7,7,1,0,22,22,33,,,,,,,,,,,,,,,,,,,,,,,,,,,,,,,828.4591297999978,828.4591297999978,828.4591297999978,828.4591297999978,828.4591297999978,0.009647200000472367,828.4591297999978,True,-0.3022222222222222,-0.4033333333333333,1,0,0,ansOne,,,,,,,,,,,,,,,,002,2022-11-01_15h27.43.086,musicalMathTest,2022.2.0,59.95998270690761,
music\active\vocals\Someone Like You (90) (Chorus Vocals) by Poison Beaches.wav,someone like you,active,vocals,2,90,multiply,2,10,20,22,23,30,0,7,7,1,0,23,23,75,,,,,,,,,,,,,,,,,,,,,,,,,,,,,,,830.6242643000005,830.6242643000005,830.6242643000005,830.6242643000005,830.6242643000005,0.00931000000127824,830.6242643000005,True,-0.10888888888888888,-0.4022222222222222,1,0,0,ansTwo,,,,,,,,,,,,,,,,002,2022-11-01_15h27.43.086,musicalMathTest,2022.2.0,59.95998270690761,
music\active\vocals\Someone Like You (90) (Chorus Vocals) by Poison Beaches.wav,someone like you,active,vocals,2,90,multiply,10,2,20,21,22,28,0,7,7,1,0,24,24,63,,,,,,,,,,,,,,,,,,,,,,,,,,,,,,,832.2059703999985,832.2059703999985,832.2059703999985,832.2059703999985,832.2059703999985,0.009064099998795427,832.2059703999985,True,0.10888888888888888,-0.40555555555555556,1,0,0,ansThree,,,,,,,,,,,,,,,,002,2022-11-01_15h27.43.086,musicalMathTest,2022.2.0,59.95998270690761,
music\active\vocals\Someone Like You (90) (Chorus Vocals) by Poison Beaches.wav,someone like you,active,vocals,2,90,multiply,5,18,90,92,100,96,0,7,7,1,0,25,25,72,,,,,,,,,,,,,,,,,,,,,,,,,,,,,,,833.705126599998,833.705126599998,833.705126599998,833.705126599998,833.705126599998,0.008827599998767255,833.705126599998,True,-0.31555555555555553,-0.4,1,0,0,ansOne,,,,,,,,,,,,,,,,002,2022-11-01_15h27.43.086,musicalMathTest,2022.2.0,59.95998270690761,
music\active\vocals\Someone Like You (90) (Chorus Vocals) by Poison Beaches.wav,someone like you,active,vocals,2,90,multiply,10,2,20,30,21,25,0,7,7,1,0,26,26,103,,,,,,,,,,,,,,,,,,,,,,,,,,,,,,,839.9860812999977,839.9860812999977,839.9860812999977,839.9860812999977,839.9860812999977,0.00893749999886495,839.9860812999977,True,-0.11444444444444445,-0.3977777777777778,1,0,0,ansTwo,,,,,,,,,,,,,,,,002,2022-11-01_15h27.43.086,musicalMathTest,2022.2.0,59.95998270690761,
music\active\vocals\Someone Like You (90) (Chorus Vocals) by Poison Beaches.wav,someone like you,active,vocals,2,90,add,43,28,71,75,77,81,0,7,7,1,0,27,27,18,,,,,,,,,,,,,,,,,,,,,,,,,,,,,,,842.3345574999985,842.3345574999985,842.3345574999985,842.3345574999985,842.3345574999985,0.00882629999978235,842.3345574999985,True,-0.11444444444444445,-0.3977777777777778,1,0,0,ansTwo,,,,,,,,,,,,,,,,002,2022-11-01_15h27.43.086,musicalMathTest,2022.2.0,59.95998270690761,
music\calm\instrumentals\You and Me (90) (Instrumental) by Bridge City Revival.wav,you and me,calm,instrumental,2,90,multiply,10,18,180,183,184,187,0,8,8,2,0,0,0,80,,,,,,,,,,,,,,,,,,,,,,,,852.365089699997,0.07950040000287117,0.017777777777777778,-0.042222222222222223,1,0,0,854.940294699998,854.940294699998,854.940294699998,854.940294699998,854.940294699998,0.029734799998550443,854.940294699998,True,0.08,-0.3988888888888889,1,0,0,ansThree,847.2965837999982,,,,,,,,,,,,,,,002,2022-11-01_15h27.43.086,musicalMathTest,2022.2.0,59.95998270690761,
music\calm\instrumentals\You and Me (90) (Instrumental) by Bridge City Revival.wav,you and me,calm,instrumental,2,90,add,43,22,65,66,71,67,0,8,8,2,0,1,1,24,,,,,,,,,,,,,,,,,,,,,,,,,,,,,,,858.0594213999975,858.0594213999975,858.0594213999975,858.0594213999975,858.0594213999975,0.008697699999174802,858.0594213999975,True,0.09888888888888889,-0.4077777777777778,1,0,0,ansThree,,,,,,,,,,,,,,,,002,2022-11-01_15h27.43.086,musicalMathTest,2022.2.0,59.95998270690761,
music\calm\instrumentals\You and Me (90) (Instrumental) by Bridge City Revival.wav,you and me,calm,instrumental,2,90,add,50,50,100,101,102,107,0,8,8,2,0,2,2,6,,,,,,,,,,,,,,,,,,,,,,,,,,,,,,,864.2571348999991,864.2571348999991,864.2571348999991,864.2571348999991,864.2571348999991,0.00970670000242535,864.2571348999991,True,0.09888888888888889,-0.4077777777777778,1,0,0,ansThree,,,,,,,,,,,,,,,,002,2022-11-01_15h27.43.086,musicalMathTest,2022.2.0,59.95998270690761,
music\calm\instrumentals\You and Me (90) (Instrumental) by Bridge City Revival.wav,you and me,calm,instrumental,2,90,multiply,10,2,20,27,26,24,0,8,8,2,0,3,3,95,,,,,,,,,,,,,,,,,,,,,,,,,,,,,,,865.4401911999994,865.4401911999994,865.4401911999994,865.4401911999994,865.4401911999994,0.008676099998410791,865.4401911999994,True,-0.3055555555555556,-0.4088888888888889,1,0,0,ansOne,,,,,,,,,,,,,,,,002,2022-11-01_15h27.43.086,musicalMathTest,2022.2.0,59.95998270690761,
music\calm\instrumentals\You and Me (90) (Instrumental) by Bridge City Revival.wav,you and me,calm,instrumental,2,90,multiply,2,2,4,7,9,5,0,8,8,2,0,4,4,115,,,,,,,,,,,,,,,,,,,,,,,,,,,,,,,867.4386831999982,867.4386831999982,867.4386831999982,867.4386831999982,867.4386831999982,0.008518700000422541,867.4386831999982,True,0.10444444444444445,-0.3977777777777778,1,0,0,ansThree,,,,,,,,,,,,,,,,002,2022-11-01_15h27.43.086,musicalMathTest,2022.2.0,59.95998270690761,
music\calm\instrumentals\You and Me (90) (Instrumental) by Bridge City Revival.wav,you and me,calm,instrumental,2,90,multiply,5,2,10,11,17,21,0,8,8,2,0,5,5,71,,,,,,,,,,,,,,,,,,,,,,,,,,,,,,,869.1390520999994,869.1390520999994,869.1390520999994,869.1390520999994,869.1390520999994,0.00898360000064713,869.1390520999994,True,-0.09555555555555556,-0.4077777777777778,1,0,0,ansTwo,,,,,,,,,,,,,,,,002,2022-11-01_15h27.43.086,musicalMathTest,2022.2.0,59.95998270690761,
music\calm\instrumentals\You and Me (90) (Instrumental) by Bridge City Revival.wav,you and me,calm,instrumental,2,90,subtract,43,25,18,21,25,19,0,8,8,2,0,6,6,52,,,,,,,,,,,,,,,,,,,,,,,,,,,,,,,870.737852299997,870.737852299997,870.737852299997,870.737852299997,870.737852299997,0.00882400000045891,870.737852299997,True,-0.09666666666666666,-0.40555555555555556,1,0,0,ansTwo,,,,,,,,,,,,,,,,002,2022-11-01_15h27.43.086,musicalMathTest,2022.2.0,59.95998270690761,
music\calm\instrumentals\You and Me (90) (Instrumental) by Bridge City Revival.wav,you and me,calm,instrumental,2,90,add,50,25,75,80,77,85,0,8,8,2,0,7,7,25,,,,,,,,,,,,,,,,,,,,,,,,,,,,,,,876.9025731000002,876.9025731000002,876.9025731000002,876.9025731000002,876.9025731000002,0.00843670000176644,876.9025731000002,True,-0.30444444444444446,-0.4022222222222222,1,0,0,ansOne,,,,,,,,,,,,,,,,002,2022-11-01_15h27.43.086,musicalMathTest,2022.2.0,59.95998270690761,
music\calm\instrumentals\You and Me (90) (Instrumental) by Bridge City Revival.wav,you and me,calm,instrumental,2,90,multiply,10,2,20,25,30,25,0,8,8,2,0,8,8,79,,,,,,,,,,,,,,,,,,,,,,,,,,,,,,,880.4315814999973,880.4315814999973,880.4315814999973,880.4315814999973,880.4315814999973,0.008480500000587199,880.4315814999973,True,-0.10777777777777778,-0.4022222222222222,1,0,0,ansTwo,,,,,,,,,,,,,,,,002,2022-11-01_15h27.43.086,musicalMathTest,2022.2.0,59.95998270690761,
music\calm\instrumentals\You and Me (90) (Instrumental) by Bridge City Revival.wav,you and me,calm,instrumental,2,90,subtract,53,49,4,6,11,9,0,8,8,2,0,9,9,44,,,,,,,,,,,,,,,,,,,,,,,,,,,,,,,881.9990617999974,881.9990617999974,881.9990617999974,881.9990617999974,881.9990617999974,0.00924509999822476,881.9990617999974,True,-0.30333333333333334,-0.4022222222222222,1,0,0,ansOne,,,,,,,,,,,,,,,,002,2022-11-01_15h27.43.086,musicalMathTest,2022.2.0,59.95998270690761,
music\calm\instrumentals\You and Me (90) (Instrumental) by Bridge City Revival.wav,you and me,calm,instrumental,2,90,subtract,50,50,0,7,5,8,0,8,8,2,0,10,10,37,,,,,,,,,,,,,,,,,,,,,,,,,,,,,,,890.1113670999985,890.1113670999985,890.1113670999985,890.1113670999985,890.1113670999985,0.00839089999863063,890.1113670999985,True,-0.10555555555555556,-0.39666666666666667,1,0,0,ansTwo,,,,,,,,,,,,,,,,002,2022-11-01_15h27.43.086,musicalMathTest,2022.2.0,59.95998270690761,
music\calm\instrumentals\You and Me (90) (Instrumental) by Bridge City Revival.wav,you and me,calm,instrumental,2,90,multiply,2,21,42,49,44,48,0,8,8,2,0,11,11,89,,,,,,,,,,,,,,,,,,,,,,,,,,,,,,,891.7274985999975,891.7274985999975,891.7274985999975,891.7274985999975,891.7274985999975,0.009138199999142671,891.7274985999975,True,0.09888888888888889,-0.4,1,0,0,ansThree,,,,,,,,,,,,,,,,002,2022-11-01_15h27.43.086,musicalMathTest,2022.2.0,59.95998270690761,
music\calm\instrumentals\You and Me (90) (Instrumental) by Bridge City Revival.wav,you and me,calm,instrumental,2,90,multiply,12,10,120,124,123,128,0,8,8,2,0,12,12,66,,,,,,,,,,,,,,,,,,,,,,,,,,,,,,,894.992267499998,894.992267499998,894.992267499998,894.992267499998,894.992267499998,0.008945500001573237,894.992267499998,True,-0.10666666666666667,-0.3988888888888889,1,0,0,ansTwo,,,,,,,,,,,,,,,,002,2022-11-01_15h27.43.086,musicalMathTest,2022.2.0,59.95998270690761,
music\calm\instrumentals\You and Me (90) (Instrumental) by Bridge City Revival.wav,you and me,calm,instrumental,2,90,add,54,49,103,109,111,106,0,8,8,2,0,13,13,7,,,,,,,,,,,,,,,,,,,,,,,,,,,,,,,896.5605431000004,896.5605431000004,896.5605431000004,896.5605431000004,896.5605431000004,0.009515100002317922,896.5605431000004,True,-0.28555555555555556,-0.40444444444444444,1,0,0,ansOne,,,,,,,,,,,,,,,,002,2022-11-01_15h27.43.086,musicalMathTest,2022.2.0,59.95998270690761,
music\calm\instrumentals\You and Me (90) (Instrumental) by Bridge City Revival.wav,you and me,calm,instrumental,2,90,subtract,49,28,21,24,11,29,0,8,8,2,0,14,14,57,,,,,,,,,,,,,,,,,,,,,,,,,,,,,,,900.8891180999999,900.8891180999999,900.8891180999999,900.8891180999999,900.8891180999999,0.00865440000052331,900.8891180999999,True,0.08888888888888889,-0.4022222222222222,1,0,0,ansThree,,,,,,,,,,,,,,,,002,2022-11-01_15h27.43.086,musicalMathTest,2022.2.0,59.95998270690761,
music\calm\instrumentals\You and Me (90) (Instrumental) by Bridge City Revival.wav,you and me,calm,instrumental,2,90,multiply,10,12,120,125,126,128,0,8,8,2,0,15,15,62,,,,,,,,,,,,,,,,,,,,,,,,,,,,,,,905.8222734999981,905.8222734999981,905.8222734999981,905.8222734999981,905.8222734999981,0.00912640000024112,905.8222734999981,True,-0.31,-0.39444444444444443,1,0,0,ansOne,,,,,,,,,,,,,,,,002,2022-11-01_15h27.43.086,musicalMathTest,2022.2.0,59.95998270690761,
music\calm\instrumentals\You and Me (90) (Instrumental) by Bridge City Revival.wav,you and me,calm,instrumental,2,90,multiply,18,10,180,190,184,182,0,8,8,2,0,16,16,68,,,,,,,,,,,,,,,,,,,,,,,,,,,,,,,907.6863446999996,907.6863446999996,907.6863446999996,907.6863446999996,907.6863446999996,0.008863700000802055,907.6863446999996,True,0.11333333333333333,-0.39222222222222225,1,0,0,ansThree,,,,,,,,,,,,,,,,002,2022-11-01_15h27.43.086,musicalMathTest,2022.2.0,59.95998270690761,
music\calm\instrumentals\You and Me (90) (Instrumental) by Bridge City Revival.wav,you and me,calm,instrumental,2,90,multiply,10,21,210,216,215,219,0,8,8,2,0,17,17,65,,,,,,,,,,,,,,,,,,,,,,,,,,,,,,,909.4197573999991,909.4197573999991,909.4197573999991,909.4197573999991,909.4197573999991,0.009151700000074925,909.4197573999991,True,0.1,-0.4066666666666667,1,0,0,ansThree,,,,,,,,,,,,,,,,002,2022-11-01_15h27.43.086,musicalMathTest,2022.2.0,59.95998270690761,
music\calm\instrumentals\You and Me (90) (Instrumental) by Bridge City Revival.wav,you and me,calm,instrumental,2,90,multiply,12,10,120,125,127,121,0,8,8,2,0,18,18,106,,,,,,,,,,,,,,,,,,,,,,,,,,,,,,,910.8012989999988,910.8012989999988,910.8012989999988,910.8012989999988,910.8012989999988,0.008747699997911695,910.8012989999988,True,0.1,-0.4066666666666667,1,0,0,ansThree,,,,,,,,,,,,,,,,002,2022-11-01_15h27.43.086,musicalMathTest,2022.2.0,59.95998270690761,
