songfilename,SongName,Speed,Condition,fileblock,testdurationsec,songCondFile,CategoryType,NumOne,NumTwo,Correct,Incorrect1,Incorrect2,Incorrect3,musicTypeLoop.thisRepN,musicTypeLoop.thisTrialN,musicTypeLoop.thisN,musicTypeLoop.thisIndex,trialsMath.thisRepN,trialsMath.thisTrialN,trialsMath.thisN,trialsMath.thisIndex,partInfoImage.started,partinfomouse.started,partinfomouse.x,partinfomouse.y,partinfomouse.leftButton,partinfomouse.midButton,partinfomouse.rightButton,partInfoImage_2.started,partinfomouse_2.started,consentBox.started,partinfomouse_2.x,partinfomouse_2.y,partinfomouse_2.leftButton,partinfomouse_2.midButton,partinfomouse_2.rightButton,partinfomouse_2.clicked_name,partInfoImage_3.started,partinfomouse_3.started,partinfomouse_3.x,partinfomouse_3.y,partinfomouse_3.leftButton,partinfomouse_3.midButton,partinfomouse_3.rightButton,partInfoImage_4.started,partinfomouse_4.started,partinfomouse_4.x,partinfomouse_4.y,partinfomouse_4.leftButton,partinfomouse_4.midButton,partinfomouse_4.rightButton,question.started,ansOne.started,ansTwo.started,ansThree.started,ansFour.started,mouseclickResponse.started,debuginfo.started,correctClick,mouseclickResponse.x,mouseclickResponse.y,mouseclickResponse.leftButton,mouseclickResponse.midButton,mouseclickResponse.rightButton,mouseclickResponse.clicked_name,text.started,text.stopped,partInfoImage_5.started,partinfomouse_5.started,partinfomouse_5.x,partinfomouse_5.y,partinfomouse_5.leftButton,partinfomouse_5.midButton,partinfomouse_5.rightButton,partInfoImage_6.started,partinfomouse_6.started,partinfomouse_6.x,partinfomouse_6.y,partinfomouse_6.leftButton,partinfomouse_6.midButton,partinfomouse_6.rightButton,session,date,expName,psychopyVersion,frameRate,
,,,,,,,,,,,,,,,,,,,,,,106.77893900003983,1.390004763379693e-05,0.3472222222222222,0.06574074074074074,1,0,0,,,,,,,,,,,,,,,,,,,,,,,,,,,,,,,,,,,,,,,,,,,,,,,,,,,,,,001,2022-11-01_12h24.03.448,musicalMathTest,2022.2.0,59.98710278642976,
,,,,,,,,,,,,,,,,,,,,,,,,,,,,,107.94563370000105,1.6400008462369442e-05,107.94563370000105,0.37962962962962965,-0.43333333333333335,1,0,0,consentBox,,,,,,,,,,,,,,,,,,,,,,,,,,,,,,,,,,,,,,,,,,,,,001,2022-11-01_12h24.03.448,musicalMathTest,2022.2.0,59.98710278642976,
,,,,,,,,,,,,,,,,,,,,,,,,,,,,,,,,,,,,,,108.8122474999982,1.0299962013959885e-05,0.24814814814814815,-0.2564814814814815,1,0,0,,,,,,,,,,,,,,,,,,,,,,,,,,,,,,,,,,,,,,001,2022-11-01_12h24.03.448,musicalMathTest,2022.2.0,59.98710278642976,
music\active\vocals\Soda Pop (feat. Hot Air Balloon) (90) by Stony Pony.wav,soda pop,active,vocals,1,90,A,multiply,10,3,30,37,39,35,0,0,0,5,0,0,0,102,,,,,,,,,,,,,,,,,,,,,,,,109.16276610002387,0.019398100033868104,0.22777777777777777,-0.24074074074074073,1,0,0,109.56224480003584,109.56224480003584,109.56224480003584,109.56224480003584,109.56224480003584,0.020747800008393824,109.56224480003584,True,-0.09259259259259259,-0.39444444444444443,1,0,0,ansTwo,,,,,,,,,,,,,,,,,001,2022-11-01_12h24.03.448,musicalMathTest,2022.2.0,59.98710278642976,
music\active\vocals\Soda Pop (feat. Hot Air Balloon) (90) by Stony Pony.wav,soda pop,active,vocals,1,90,A,subtract,55,19,36,42,43,37,0,0,0,5,0,1,1,44,,,,,,,,,,,,,,,,,,,,,,,,,,,,,,,110.86221829999704,110.86221829999704,110.86221829999704,110.86221829999704,110.86221829999704,0.005307999963406473,110.86221829999704,True,0.09166666666666666,-0.4,1,0,0,ansThree,,,,,,,,,,,,,,,,,001,2022-11-01_12h24.03.448,musicalMathTest,2022.2.0,59.98710278642976,
music\active\vocals\Soda Pop (feat. Hot Air Balloon) (90) by Stony Pony.wav,soda pop,active,vocals,1,90,A,subtract,39,10,29,33,34,33,0,0,0,5,0,2,2,49,,,,,,,,,,,,,,,,,,,,,,,,,,,,,,,115.1121594000142,115.1121594000142,115.1121594000142,115.1121594000142,115.1121594000142,0.003207000030670315,115.1121594000142,True,-0.08888888888888889,-0.4046296296296296,1,0,0,ansTwo,,,,,,,,,,,,,,,,,001,2022-11-01_12h24.03.448,musicalMathTest,2022.2.0,59.98710278642976,
music\active\vocals\Soda Pop (feat. Hot Air Balloon) (90) by Stony Pony.wav,soda pop,active,vocals,1,90,A,multiply,3,10,30,31,32,37,0,0,0,5,0,3,3,106,,,,,,,,,,,,,,,,,,,,,,,,,,,,,,,117.44540530000813,117.44540530000813,117.44540530000813,117.44540530000813,117.44540530000813,0.003409800003282726,117.44540530000813,True,-0.30092592592592593,-0.39814814814814814,1,0,0,ansOne,,,,,,,,,,,,,,,,,001,2022-11-01_12h24.03.448,musicalMathTest,2022.2.0,59.98710278642976,
music\active\vocals\Soda Pop (feat. Hot Air Balloon) (90) by Stony Pony.wav,soda pop,active,vocals,1,90,A,add,19,19,38,43,48,42,0,0,0,5,0,4,4,10,,,,,,,,,,,,,,,,,,,,,,,,,,,,,,,118.79542880004738,118.79542880004738,118.79542880004738,118.79542880004738,118.79542880004738,0.004780700022820383,118.79542880004738,True,-0.2972222222222222,-0.4074074074074074,1,0,0,ansOne,,,,,,,,,,,,,,,,,001,2022-11-01_12h24.03.448,musicalMathTest,2022.2.0,59.98710278642976,
music\active\vocals\Soda Pop (feat. Hot Air Balloon) (90) by Stony Pony.wav,soda pop,active,vocals,1,90,A,subtract,23,15,8,13,11,12,0,0,0,5,0,5,5,35,,,,,,,,,,,,,,,,,,,,,,,,,,,,,,,121.27876860002289,121.27876860002289,121.27876860002289,121.27876860002289,121.27876860002289,0.004210799990687519,121.27876860002289,True,-0.09907407407407408,-0.40370370370370373,1,0,0,ansTwo,,,,,,,,,,,,,,,,,001,2022-11-01_12h24.03.448,musicalMathTest,2022.2.0,59.98710278642976,
music\active\vocals\Soda Pop (feat. Hot Air Balloon) (90) by Stony Pony.wav,soda pop,active,vocals,1,90,A,multiply,5,4,20,26,21,28,0,0,0,5,0,6,6,112,,,,,,,,,,,,,,,,,,,,,,,,,,,,,,,125.89532519999193,125.89532519999193,125.89532519999193,125.89532519999193,125.89532519999193,0.0036847000010311604,125.89532519999193,True,-0.2898148148148148,-0.4046296296296296,1,0,0,ansOne,,,,,,,,,,,,,,,,,001,2022-11-01_12h24.03.448,musicalMathTest,2022.2.0,59.98710278642976,
music\active\vocals\Soda Pop (feat. Hot Air Balloon) (90) by Stony Pony.wav,soda pop,active,vocals,1,90,A,subtract,60,55,5,13,12,8,0,0,0,5,0,7,7,56,,,,,,,,,,,,,,,,,,,,,,,,,,,,,,,128.24525100004394,128.24525100004394,128.24525100004394,128.24525100004394,128.24525100004394,0.003451000025961548,128.24525100004394,True,-0.09907407407407408,-0.3972222222222222,1,0,0,ansTwo,,,,,,,,,,,,,,,,,001,2022-11-01_12h24.03.448,musicalMathTest,2022.2.0,59.98710278642976,
music\active\vocals\Soda Pop (feat. Hot Air Balloon) (90) by Stony Pony.wav,soda pop,active,vocals,1,90,A,multiply,5,4,20,25,28,26,0,0,0,5,0,8,8,72,,,,,,,,,,,,,,,,,,,,,,,,,,,,,,,129.67865760001587,129.67865760001587,129.67865760001587,129.67865760001587,129.67865760001587,0.00306979997549206,129.67865760001587,True,0.10833333333333334,-0.4,1,0,0,ansThree,,,,,,,,,,,,,,,,,001,2022-11-01_12h24.03.448,musicalMathTest,2022.2.0,59.98710278642976,
music\active\vocals\Soda Pop (feat. Hot Air Balloon) (90) by Stony Pony.wav,soda pop,active,vocals,1,90,A,add,55,55,110,117,115,119,0,0,0,5,0,9,9,17,,,,,,,,,,,,,,,,,,,,,,,,,,,,,,,130.97852900001453,130.97852900001453,130.97852900001453,130.97852900001453,130.97852900001453,0.0033875000081025064,130.97852900001453,True,0.09444444444444444,-0.39814814814814814,1,0,0,ansThree,,,,,,,,,,,,,,,,,001,2022-11-01_12h24.03.448,musicalMathTest,2022.2.0,59.98710278642976,
music\active\vocals\Soda Pop (feat. Hot Air Balloon) (90) by Stony Pony.wav,soda pop,active,vocals,1,90,A,subtract,23,19,4,9,6,10,0,0,0,5,0,10,10,31,,,,,,,,,,,,,,,,,,,,,,,,,,,,,,,134.72852850001073,134.72852850001073,134.72852850001073,134.72852850001073,134.72852850001073,0.0031902000191621482,134.72852850001073,True,0.09537037037037037,-0.39814814814814814,1,0,0,ansThree,,,,,,,,,,,,,,,,,001,2022-11-01_12h24.03.448,musicalMathTest,2022.2.0,59.98710278642976,
music\active\vocals\Soda Pop (feat. Hot Air Balloon) (90) by Stony Pony.wav,soda pop,active,vocals,1,90,A,multiply,10,15,150,156,158,162,0,0,0,5,0,11,11,63,,,,,,,,,,,,,,,,,,,,,,,,,,,,,,,137.7617939999909,137.7617939999909,137.7617939999909,137.7617939999909,137.7617939999909,0.0034007999929599464,137.7617939999909,True,-0.29444444444444445,-0.4,1,0,0,ansOne,,,,,,,,,,,,,,,,,001,2022-11-01_12h24.03.448,musicalMathTest,2022.2.0,59.98710278642976,
music\active\vocals\Soda Pop (feat. Hot Air Balloon) (90) by Stony Pony.wav,soda pop,active,vocals,1,90,A,subtract,58,55,3,6,10,7,0,0,0,5,0,12,12,60,,,,,,,,,,,,,,,,,,,,,,,,,,,,,,,139.14510010002414,139.14510010002414,139.14510010002414,139.14510010002414,139.14510010002414,0.003171499993186444,139.14510010002414,True,-0.09814814814814815,-0.40185185185185185,1,0,0,ansTwo,,,,,,,,,,,,,,,,,001,2022-11-01_12h24.03.448,musicalMathTest,2022.2.0,59.98710278642976,
music\active\vocals\Soda Pop (feat. Hot Air Balloon) (90) by Stony Pony.wav,soda pop,active,vocals,1,90,A,multiply,15,2,30,31,36,40,0,0,0,5,0,13,13,115,,,,,,,,,,,,,,,,,,,,,,,,,,,,,,,142.17835290002404,142.17835290002404,142.17835290002404,142.17835290002404,142.17835290002404,0.0033741999650374055,142.17835290002404,True,0.10740740740740741,-0.40185185185185185,1,0,0,ansThree,,,,,,,,,,,,,,,,,001,2022-11-01_12h24.03.448,musicalMathTest,2022.2.0,59.98710278642976,
music\active\vocals\Soda Pop (feat. Hot Air Balloon) (90) by Stony Pony.wav,soda pop,active,vocals,1,90,A,multiply,2,15,30,31,33,35,0,0,0,5,0,14,14,87,,,,,,,,,,,,,,,,,,,,,,,,,,,,,,,143.74499979999382,143.74499979999382,143.74499979999382,143.74499979999382,143.74499979999382,0.0032147999736480415,143.74499979999382,True,-0.09537037037037037,-0.3990740740740741,1,0,0,ansTwo,,,,,,,,,,,,,,,,,001,2022-11-01_12h24.03.448,musicalMathTest,2022.2.0,59.98710278642976,
music\active\vocals\Soda Pop (feat. Hot Air Balloon) (90) by Stony Pony.wav,soda pop,active,vocals,1,90,A,multiply,3,5,15,22,23,19,0,0,0,5,0,15,15,98,,,,,,,,,,,,,,,,,,,,,,,,,,,,,,,145.0783421000233,145.0783421000233,145.0783421000233,145.0783421000233,145.0783421000233,0.0033178000012412667,145.0783421000233,True,-0.1,-0.3962962962962963,1,0,0,ansTwo,,,,,,,,,,,,,,,,,001,2022-11-01_12h24.03.448,musicalMathTest,2022.2.0,59.98710278642976,
music\active\vocals\Soda Pop (feat. Hot Air Balloon) (90) by Stony Pony.wav,soda pop,active,vocals,1,90,A,add,55,19,74,82,77,81,0,0,0,5,0,16,16,13,,,,,,,,,,,,,,,,,,,,,,,,,,,,,,,146.37831699999515,146.37831699999515,146.37831699999515,146.37831699999515,146.37831699999515,0.0031520999618805945,146.37831699999515,True,-0.30185185185185187,-0.4009259259259259,1,0,0,ansOne,,,,,,,,,,,,,,,,,001,2022-11-01_12h24.03.448,musicalMathTest,2022.2.0,59.98710278642976,
music\active\vocals\Soda Pop (feat. Hot Air Balloon) (90) by Stony Pony.wav,soda pop,active,vocals,1,90,A,add,23,15,38,41,44,41,0,0,0,5,0,17,17,4,,,,,,,,,,,,,,,,,,,,,,,,,,,,,,,150.42830450000474,150.42830450000474,150.42830450000474,150.42830450000474,150.42830450000474,0.0037988999974913895,150.42830450000474,True,-0.29444444444444445,-0.4027777777777778,1,0,0,ansOne,,,,,,,,,,,,,,,,,001,2022-11-01_12h24.03.448,musicalMathTest,2022.2.0,59.98710278642976,
music\active\vocals\Soda Pop (feat. Hot Air Balloon) (90) by Stony Pony.wav,soda pop,active,vocals,1,90,A,multiply,2,3,6,14,7,14,0,0,0,5,0,18,18,86,,,,,,,,,,,,,,,,,,,,,,,,,,,,,,,153.09498400002485,153.09498400002485,153.09498400002485,153.09498400002485,153.09498400002485,0.003104300005361438,153.09498400002485,True,0.10092592592592593,-0.3990740740740741,1,0,0,ansThree,,,,,,,,,,,,,,,,,001,2022-11-01_12h24.03.448,musicalMathTest,2022.2.0,59.98710278642976,
music\active\vocals\Soda Pop (feat. Hot Air Balloon) (90) by Stony Pony.wav,soda pop,active,vocals,1,90,A,multiply,5,15,75,76,78,77,0,0,0,5,0,19,19,111,,,,,,,,,,,,,,,,,,,,,,,,,,,,,,,154.74505630001659,154.74505630001659,154.74505630001659,154.74505630001659,154.74505630001659,0.0033279999624937773,154.74505630001659,True,0.10092592592592593,-0.4046296296296296,1,0,0,ansThree,,,,,,,,,,,,,,,,,001,2022-11-01_12h24.03.448,musicalMathTest,2022.2.0,59.98710278642976,
music\active\vocals\Soda Pop (feat. Hot Air Balloon) (90) by Stony Pony.wav,soda pop,active,vocals,1,90,A,add,58,55,113,123,119,114,0,0,0,5,0,20,20,29,,,,,,,,,,,,,,,,,,,,,,,,,,,,,,,157.511534499994,157.511534499994,157.511534499994,157.511534499994,157.511534499994,0.003279199998360127,157.511534499994,True,-0.08611111111111111,-0.40370370370370373,1,0,0,ansTwo,,,,,,,,,,,,,,,,,001,2022-11-01_12h24.03.448,musicalMathTest,2022.2.0,59.98710278642976,
music\active\vocals\Soda Pop (feat. Hot Air Balloon) (90) by Stony Pony.wav,soda pop,active,vocals,1,90,A,add,42,37,79,81,89,82,0,0,0,5,0,21,21,23,,,,,,,,,,,,,,,,,,,,,,,,,,,,,,,170.34482699999353,170.34482699999353,170.34482699999353,170.34482699999353,170.34482699999353,0.003379700006917119,170.34482699999353,True,-0.10925925925925926,-0.4009259259259259,1,0,0,ansTwo,,,,,,,,,,,,,,,,,001,2022-11-01_12h24.03.448,musicalMathTest,2022.2.0,59.98710278642976,
music\active\vocals\Soda Pop (feat. Hot Air Balloon) (90) by Stony Pony.wav,soda pop,active,vocals,1,90,A,multiply,10,15,150,155,156,160,0,0,0,5,0,22,22,95,,,,,,,,,,,,,,,,,,,,,,,,,,,,,,,178.8278779000393,178.8278779000393,178.8278779000393,178.8278779000393,178.8278779000393,0.0032901999657042325,178.8278779000393,True,-0.31666666666666665,-0.4009259259259259,1,0,0,ansOne,,,,,,,,,,,,,,,,,001,2022-11-01_12h24.03.448,musicalMathTest,2022.2.0,59.98710278642976,
music\active\vocals\Soda Pop (feat. Hot Air Balloon) (90) by Stony Pony.wav,soda pop,active,vocals,1,90,A,multiply,4,10,40,47,43,46,0,0,0,5,0,23,23,68,,,,,,,,,,,,,,,,,,,,,,,,,,,,,,,180.81115210003918,180.81115210003918,180.81115210003918,180.81115210003918,180.81115210003918,0.003584399993997067,180.81115210003918,True,0.1037037037037037,-0.3972222222222222,1,0,0,ansThree,,,,,,,,,,,,,,,,,001,2022-11-01_12h24.03.448,musicalMathTest,2022.2.0,59.98710278642976,
music\active\vocals\Soda Pop (feat. Hot Air Balloon) (90) by Stony Pony.wav,soda pop,active,vocals,1,90,A,multiply,15,5,75,78,81,78,0,0,0,5,0,24,24,99,,,,,,,,,,,,,,,,,,,,,,,,,,,,,,,181.97782110003754,181.97782110003754,181.97782110003754,181.97782110003754,181.97782110003754,0.003185999987181276,181.97782110003754,True,0.10092592592592593,-0.4027777777777778,1,0,0,ansThree,,,,,,,,,,,,,,,,,001,2022-11-01_12h24.03.448,musicalMathTest,2022.2.0,59.98710278642976,
music\active\vocals\Soda Pop (feat. Hot Air Balloon) (90) by Stony Pony.wav,soda pop,active,vocals,1,90,A,multiply,15,10,150,153,157,151,0,0,0,5,0,25,25,75,,,,,,,,,,,,,,,,,,,,,,,,,,,,,,,184.04445809999015,184.04445809999015,184.04445809999015,184.04445809999015,184.04445809999015,0.0035669999779202044,184.04445809999015,True,-0.29907407407407405,-0.39351851851851855,1,0,0,ansOne,,,,,,,,,,,,,,,,,001,2022-11-01_12h24.03.448,musicalMathTest,2022.2.0,59.98710278642976,
music\active\vocals\Soda Pop (feat. Hot Air Balloon) (90) by Stony Pony.wav,soda pop,active,vocals,1,90,A,add,19,10,29,39,37,33,0,0,0,5,0,26,26,26,,,,,,,,,,,,,,,,,,,,,,,,,,,,,,,185.41113100002985,185.41113100002985,185.41113100002985,185.41113100002985,185.41113100002985,0.003192499978467822,185.41113100002985,True,0.10740740740740741,-0.4046296296296296,1,0,0,ansThree,,,,,,,,,,,,,,,,,001,2022-11-01_12h24.03.448,musicalMathTest,2022.2.0,59.98710278642976,
music\active\vocals\Soda Pop (feat. Hot Air Balloon) (90) by Stony Pony.wav,soda pop,active,vocals,1,90,A,add,26,23,49,52,54,55,0,0,0,5,0,27,27,16,,,,,,,,,,,,,,,,,,,,,,,,,,,,,,,186.79442120000022,186.79442120000022,186.79442120000022,186.79442120000022,186.79442120000022,0.0033436999656260014,186.79442120000022,True,-0.30833333333333335,-0.4009259259259259,1,0,0,ansOne,,,,,,,,,,,,,,,,,001,2022-11-01_12h24.03.448,musicalMathTest,2022.2.0,59.98710278642976,
music\active\vocals\Soda Pop (feat. Hot Air Balloon) (90) by Stony Pony.wav,soda pop,active,vocals,1,90,A,multiply,4,10,40,47,43,44,0,0,0,5,0,28,28,76,,,,,,,,,,,,,,,,,,,,,,,,,,,,,,,190.36110040004132,190.36110040004132,190.36110040004132,190.36110040004132,190.36110040004132,0.0032558999955654144,190.36110040004132,True,0.11388888888888889,-0.3972222222222222,1,0,0,ansThree,,,,,,,,,,,,,,,,,001,2022-11-01_12h24.03.448,musicalMathTest,2022.2.0,59.98710278642976,
music\active\vocals\Soda Pop (feat. Hot Air Balloon) (90) by Stony Pony.wav,soda pop,active,vocals,1,90,A,multiply,15,10,150,156,155,157,0,0,0,5,0,29,29,91,,,,,,,,,,,,,,,,,,,,,,,,,,,,,,,191.81104540004162,191.81104540004162,191.81104540004162,191.81104540004162,191.81104540004162,0.0035075999912805855,191.81104540004162,True,0.10092592592592593,-0.39166666666666666,1,0,0,ansThree,,,,,,,,,,,,,,,,,001,2022-11-01_12h24.03.448,musicalMathTest,2022.2.0,59.98710278642976,
music\active\vocals\Soda Pop (feat. Hot Air Balloon) (90) by Stony Pony.wav,soda pop,active,vocals,1,90,A,subtract,42,37,5,12,11,9,0,0,0,5,0,30,30,54,,,,,,,,,,,,,,,,,,,,,,,,,,,,,,,192.87762909999583,192.87762909999583,192.87762909999583,192.87762909999583,192.87762909999583,0.0032597000245004892,192.87762909999583,True,-0.09074074074074075,-0.39444444444444443,1,0,0,ansTwo,,,,,,,,,,,,,,,,,001,2022-11-01_12h24.03.448,musicalMathTest,2022.2.0,59.98710278642976,
music\active\vocals\Soda Pop (feat. Hot Air Balloon) (90) by Stony Pony.wav,soda pop,active,vocals,1,90,A,multiply,10,17,170,171,178,176,0,0,0,5,0,31,31,65,,,,,,,,,,,,,,,,,,,,,,,,,,,,,,,195.72768060001545,195.72768060001545,195.72768060001545,195.72768060001545,195.72768060001545,0.00339000002713874,195.72768060001545,True,-0.2861111111111111,-0.4,1,0,0,ansOne,,,,,,,,,,,,,,,,,001,2022-11-01_12h24.03.448,musicalMathTest,2022.2.0,59.98710278642976,
music\active\instrumentals\Believe It (90) (Instrumental) by Ty Magenta.wav,believe it,active,instrumental,1,90,A,add,25,14,39,42,44,40,0,1,1,0,0,0,0,1,,,,,,,,,,,,,,,,,,,,,,,,204.96079280000413,0.0029203000012785196,-0.0787037037037037,-0.362962962962963,1,0,0,205.9441030000453,205.9441030000453,205.9441030000453,205.9441030000453,205.9441030000453,0.011570400034543127,205.9441030000453,True,-0.29907407407407405,-0.39444444444444443,1,0,0,ansOne,199.96092550002504,204.96079280000413,,,,,,,,,,,,,,,001,2022-11-01_12h24.03.448,musicalMathTest,2022.2.0,59.98710278642976,
music\active\instrumentals\Believe It (90) (Instrumental) by Ty Magenta.wav,believe it,active,instrumental,1,90,A,add,22,22,44,52,49,52,0,1,1,0,0,1,1,20,,,,,,,,,,,,,,,,,,,,,,,,,,,,,,,209.5773770000087,209.5773770000087,209.5773770000087,209.5773770000087,209.5773770000087,0.0032482999959029257,209.5773770000087,True,-0.10277777777777777,-0.39814814814814814,1,0,0,ansTwo,,,,,,,,,,,,,,,,,001,2022-11-01_12h24.03.448,musicalMathTest,2022.2.0,59.98710278642976,
music\active\instrumentals\Believe It (90) (Instrumental) by Ty Magenta.wav,believe it,active,instrumental,1,90,A,subtract,54,49,5,12,7,6,0,1,1,0,0,2,2,31,,,,,,,,,,,,,,,,,,,,,,,,,,,,,,,211.04408020002302,211.04408020002302,211.04408020002302,211.04408020002302,211.04408020002302,0.0032440999639220536,211.04408020002302,True,-0.3037037037037037,-0.40370370370370373,1,0,0,ansOne,,,,,,,,,,,,,,,,,001,2022-11-01_12h24.03.448,musicalMathTest,2022.2.0,59.98710278642976,
music\active\instrumentals\Believe It (90) (Instrumental) by Ty Magenta.wav,believe it,active,instrumental,1,90,A,subtract,50,22,28,29,18,36,0,1,1,0,0,3,3,59,,,,,,,,,,,,,,,,,,,,,,,,,,,,,,,217.5774287999957,217.5774287999957,217.5774287999957,217.5774287999957,217.5774287999957,0.003167099959682673,217.5774287999957,True,-0.10740740740740741,-0.40185185185185185,1,0,0,ansTwo,,,,,,,,,,,,,,,,,001,2022-11-01_12h24.03.448,musicalMathTest,2022.2.0,59.98710278642976,
music\active\instrumentals\Believe It (90) (Instrumental) by Ty Magenta.wav,believe it,active,instrumental,1,90,A,add,49,28,77,79,78,81,0,1,1,0,0,4,4,26,,,,,,,,,,,,,,,,,,,,,,,,,,,,,,,220.81062210001983,220.81062210001983,220.81062210001983,220.81062210001983,220.81062210001983,0.0033035000087693334,220.81062210001983,False,0.10648148148148148,-0.4,1,0,0,ansThree,,,,,,,,,,,,,,,,,001,2022-11-01_12h24.03.448,musicalMathTest,2022.2.0,59.98710278642976,
music\active\instrumentals\Believe It (90) (Instrumental) by Ty Magenta.wav,believe it,active,instrumental,1,90,A,add,44,43,87,93,97,101,0,1,1,0,0,5,5,5,,,,,,,,,,,,,,,,,,,,,,,,,,,,,,,225.39388770004734,225.39388770004734,225.39388770004734,225.39388770004734,225.39388770004734,0.0031631000456400216,225.39388770004734,True,0.10277777777777777,-0.4009259259259259,1,0,0,ansThree,,,,,,,,,,,,,,,,,001,2022-11-01_12h24.03.448,musicalMathTest,2022.2.0,59.98710278642976,
music\active\instrumentals\Believe It (90) (Instrumental) by Ty Magenta.wav,believe it,active,instrumental,1,90,A,multiply,2,2,4,5,10,11,0,1,1,0,0,6,6,87,,,,,,,,,,,,,,,,,,,,,,,,,,,,,,,230.79384070000378,230.79384070000378,230.79384070000378,230.79384070000378,230.79384070000378,0.0031541999778710306,230.79384070000378,True,-0.10092592592592593,-0.39814814814814814,1,0,0,ansTwo,,,,,,,,,,,,,,,,,001,2022-11-01_12h24.03.448,musicalMathTest,2022.2.0,59.98710278642976,
music\active\instrumentals\Believe It (90) (Instrumental) by Ty Magenta.wav,believe it,active,instrumental,1,90,A,multiply,10,18,180,186,185,187,0,1,1,0,0,7,7,104,,,,,,,,,,,,,,,,,,,,,,,,,,,,,,,232.22704990004422,232.22704990004422,232.22704990004422,232.22704990004422,232.22704990004422,0.003486800007522106,232.22704990004422,True,-0.10648148148148148,-0.3925925925925926,1,0,0,ansTwo,,,,,,,,,,,,,,,,,001,2022-11-01_12h24.03.448,musicalMathTest,2022.2.0,59.98710278642976,
music\active\instrumentals\Believe It (90) (Instrumental) by Ty Magenta.wav,believe it,active,instrumental,1,90,A,add,53,50,103,105,107,111,0,1,1,0,0,8,8,9,,,,,,,,,,,,,,,,,,,,,,,,,,,,,,,233.39373770001112,233.39373770001112,233.39373770001112,233.39373770001112,233.39373770001112,0.003452800039667636,233.39373770001112,True,-0.08796296296296297,-0.4009259259259259,1,0,0,ansTwo,,,,,,,,,,,,,,,,,001,2022-11-01_12h24.03.448,musicalMathTest,2022.2.0,59.98710278642976,
music\active\instrumentals\Believe It (90) (Instrumental) by Ty Magenta.wav,believe it,active,instrumental,1,90,A,multiply,5,21,105,115,107,109,0,1,1,0,0,9,9,73,,,,,,,,,,,,,,,,,,,,,,,,,,,,,,,235.99376199999824,235.99376199999824,235.99376199999824,235.99376199999824,235.99376199999824,0.0032896999618969858,235.99376199999824,True,-0.09444444444444444,-0.40370370370370373,1,0,0,ansTwo,,,,,,,,,,,,,,,,,001,2022-11-01_12h24.03.448,musicalMathTest,2022.2.0,59.98710278642976,
music\active\instrumentals\Believe It (90) (Instrumental) by Ty Magenta.wav,believe it,active,instrumental,1,90,A,add,22,14,36,38,39,44,0,1,1,0,0,10,10,4,,,,,,,,,,,,,,,,,,,,,,,,,,,,,,,239.14362480002455,239.14362480002455,239.14362480002455,239.14362480002455,239.14362480002455,0.0033027000026777387,239.14362480002455,True,-0.09537037037037037,-0.40370370370370373,1,0,0,ansTwo,,,,,,,,,,,,,,,,,001,2022-11-01_12h24.03.448,musicalMathTest,2022.2.0,59.98710278642976,
music\active\instrumentals\Believe It (90) (Instrumental) by Ty Magenta.wav,believe it,active,instrumental,1,90,A,subtract,48,48,0,6,8,4,0,1,1,0,0,11,11,58,,,,,,,,,,,,,,,,,,,,,,,,,,,,,,,244.17719060002128,244.17719060002128,244.17719060002128,244.17719060002128,244.17719060002128,0.0030765000265091658,244.17719060002128,True,0.09444444444444444,-0.3990740740740741,1,0,0,ansThree,,,,,,,,,,,,,,,,,001,2022-11-01_12h24.03.448,musicalMathTest,2022.2.0,59.98710278642976,
music\active\instrumentals\Believe It (90) (Instrumental) by Ty Magenta.wav,believe it,active,instrumental,1,90,A,add,26,25,51,55,57,61,0,1,1,0,0,12,12,17,,,,,,,,,,,,,,,,,,,,,,,,,,,,,,,246.24349930003518,246.24349930003518,246.24349930003518,246.24349930003518,246.24349930003518,0.003479000006336719,246.24349930003518,True,-0.30092592592592593,-0.4009259259259259,1,0,0,ansOne,,,,,,,,,,,,,,,,,001,2022-11-01_12h24.03.448,musicalMathTest,2022.2.0,59.98710278642976,
music\active\instrumentals\Believe It (90) (Instrumental) by Ty Magenta.wav,believe it,active,instrumental,1,90,A,add,50,28,78,86,85,88,0,1,1,0,0,13,13,22,,,,,,,,,,,,,,,,,,,,,,,,,,,,,,,249.52677699999185,249.52677699999185,249.52677699999185,249.52677699999185,249.52677699999185,0.0033886999590322375,249.52677699999185,True,0.09537037037037037,-0.4027777777777778,1,0,0,ansThree,,,,,,,,,,,,,,,,,001,2022-11-01_12h24.03.448,musicalMathTest,2022.2.0,59.98710278642976,
music\active\instrumentals\Believe It (90) (Instrumental) by Ty Magenta.wav,believe it,active,instrumental,1,90,A,add,54,49,103,105,109,107,0,1,1,0,0,14,14,0,,,,,,,,,,,,,,,,,,,,,,,,,,,,,,,252.3102871000301,252.3102871000301,252.3102871000301,252.3102871000301,252.3102871000301,0.0033316999906674027,252.3102871000301,True,-0.10462962962962963,-0.40185185185185185,1,0,0,ansTwo,,,,,,,,,,,,,,,,,001,2022-11-01_12h24.03.448,musicalMathTest,2022.2.0,59.98710278642976,
music\active\instrumentals\Believe It (90) (Instrumental) by Ty Magenta.wav,believe it,active,instrumental,1,90,A,add,48,14,62,63,72,66,0,1,1,0,0,15,15,11,,,,,,,,,,,,,,,,,,,,,,,,,,,,,,,261.01012490002904,261.01012490002904,261.01012490002904,261.01012490002904,261.01012490002904,0.003143100009765476,261.01012490002904,True,0.09444444444444444,-0.4027777777777778,1,0,0,ansThree,,,,,,,,,,,,,,,,,001,2022-11-01_12h24.03.448,musicalMathTest,2022.2.0,59.98710278642976,
music\active\instrumentals\Believe It (90) (Instrumental) by Ty Magenta.wav,believe it,active,instrumental,1,90,A,subtract,53,50,3,6,11,10,0,1,1,0,0,16,16,40,,,,,,,,,,,,,,,,,,,,,,,,,,,,,,,269.44320010003867,269.44320010003867,269.44320010003867,269.44320010003867,269.44320010003867,0.0034632000024430454,269.44320010003867,True,-0.29907407407407405,-0.3972222222222222,1,0,0,ansOne,,,,,,,,,,,,,,,,,001,2022-11-01_12h24.03.448,musicalMathTest,2022.2.0,59.98710278642976,
music\active\instrumentals\Believe It (90) (Instrumental) by Ty Magenta.wav,believe it,active,instrumental,1,90,A,multiply,21,10,210,214,217,216,0,1,1,0,0,17,17,93,,,,,,,,,,,,,,,,,,,,,,,,,,,,,,,271.9265494000283,271.9265494000283,271.9265494000283,271.9265494000283,271.9265494000283,0.0032554000499658287,271.9265494000283,True,-0.30185185185185187,-0.40185185185185185,1,0,0,ansOne,,,,,,,,,,,,,,,,,001,2022-11-01_12h24.03.448,musicalMathTest,2022.2.0,59.98710278642976,
music\active\instrumentals\Believe It (90) (Instrumental) by Ty Magenta.wav,believe it,active,instrumental,1,90,A,multiply,2,10,20,27,29,27,0,1,1,0,0,18,18,91,,,,,,,,,,,,,,,,,,,,,,,,,,,,,,,273.6931213000207,273.6931213000207,273.6931213000207,273.6931213000207,273.6931213000207,0.0033098000567406416,273.6931213000207,True,-0.11018518518518519,-0.39537037037037037,1,0,0,ansTwo,,,,,,,,,,,,,,,,,001,2022-11-01_12h24.03.448,musicalMathTest,2022.2.0,59.98710278642976,
music\active\instrumentals\Believe It (90) (Instrumental) by Ty Magenta.wav,believe it,active,instrumental,1,90,A,subtract,54,49,5,8,6,10,0,1,1,0,0,19,19,38,,,,,,,,,,,,,,,,,,,,,,,,,,,,,,,274.9931981000118,274.9931981000118,274.9931981000118,274.9931981000118,274.9931981000118,0.0030457000248134136,274.9931981000118,True,-0.1037037037037037,-0.39444444444444443,1,0,0,ansTwo,,,,,,,,,,,,,,,,,001,2022-11-01_12h24.03.448,musicalMathTest,2022.2.0,59.98710278642976,
music\active\instrumentals\Believe It (90) (Instrumental) by Ty Magenta.wav,believe it,active,instrumental,1,90,A,add,28,14,42,47,43,46,0,1,1,0,0,20,20,14,,,,,,,,,,,,,,,,,,,,,,,,,,,,,,,277.60977460001595,277.60977460001595,277.60977460001595,277.60977460001595,277.60977460001595,0.003916399960871786,277.60977460001595,True,-0.30925925925925923,-0.4064814814814815,1,0,0,ansOne,,,,,,,,,,,,,,,,,001,2022-11-01_12h24.03.448,musicalMathTest,2022.2.0,59.98710278642976,
music\active\instrumentals\Believe It (90) (Instrumental) by Ty Magenta.wav,believe it,active,instrumental,1,90,A,multiply,5,18,90,92,91,94,0,1,1,0,0,21,21,112,,,,,,,,,,,,,,,,,,,,,,,,,,,,,,,283.14301240001805,283.14301240001805,283.14301240001805,283.14301240001805,283.14301240001805,0.0032124999561347067,283.14301240001805,True,-0.10648148148148148,-0.4009259259259259,1,0,0,ansTwo,,,,,,,,,,,,,,,,,001,2022-11-01_12h24.03.448,musicalMathTest,2022.2.0,59.98710278642976,
music\active\instrumentals\Believe It (90) (Instrumental) by Ty Magenta.wav,believe it,active,instrumental,1,90,A,multiply,5,12,60,61,66,64,0,1,1,0,0,22,22,70,,,,,,,,,,,,,,,,,,,,,,,,,,,,,,,287.9262715000077,287.9262715000077,287.9262715000077,287.9262715000077,287.9262715000077,0.0034339999547228217,287.9262715000077,True,0.11388888888888889,-0.39444444444444443,1,0,0,ansThree,,,,,,,,,,,,,,,,,001,2022-11-01_12h24.03.448,musicalMathTest,2022.2.0,59.98710278642976,
music\active\instrumentals\Believe It (90) (Instrumental) by Ty Magenta.wav,believe it,active,instrumental,1,90,A,add,49,48,97,105,99,101,0,1,1,0,0,23,23,23,,,,,,,,,,,,,,,,,,,,,,,,,,,,,,,291.5429481000174,291.5429481000174,291.5429481000174,291.5429481000174,291.5429481000174,0.0033232999849133193,291.5429481000174,True,-0.30925925925925923,-0.40555555555555556,1,0,0,ansOne,,,,,,,,,,,,,,,,,001,2022-11-01_12h24.03.448,musicalMathTest,2022.2.0,59.98710278642976,
music\active\instrumentals\Believe It (90) (Instrumental) by Ty Magenta.wav,believe it,active,instrumental,1,90,A,multiply,10,18,180,183,184,187,0,1,1,0,0,24,24,80,,,,,,,,,,,,,,,,,,,,,,,,,,,,,,,294.57621470000595,294.57621470000595,294.57621470000595,294.57621470000595,294.57621470000595,0.003539400000590831,294.57621470000595,True,-0.3175925925925926,-0.4074074074074074,1,0,0,ansOne,,,,,,,,,,,,,,,,,001,2022-11-01_12h24.03.448,musicalMathTest,2022.2.0,59.98710278642976,
music\active\vocals\Like This (90) by MUNNYCAT.wav,like this,active,vocals,1,90,A,subtract,48,47,1,8,10,7,0,2,2,2,0,0,0,55,,,,,,,,,,,,,,,,,,,,,,,,300.92608200001996,0.002744500001426786,0.325,0.41944444444444445,1,0,0,316.69256650004536,316.69256650004536,316.69256650004536,316.69256650004536,316.69256650004536,0.011913400026969612,316.69256650004536,True,-0.1037037037037037,-0.4009259259259259,1,0,0,ansTwo,295.92615450004814,300.92608200001996,,,,,,,,,,,,,,,001,2022-11-01_12h24.03.448,musicalMathTest,2022.2.0,59.98710278642976,
music\active\vocals\Like This (90) by MUNNYCAT.wav,like this,active,vocals,1,90,A,multiply,10,13,130,135,137,140,0,2,2,2,0,1,1,105,,,,,,,,,,,,,,,,,,,,,,,,,,,,,,,320.6757843000232,320.6757843000232,320.6757843000232,320.6757843000232,320.6757843000232,0.0034904000349342823,320.6757843000232,True,0.1037037037037037,-0.39444444444444443,1,0,0,ansThree,,,,,,,,,,,,,,,,,001,2022-11-01_12h24.03.448,musicalMathTest,2022.2.0,59.98710278642976,
music\active\vocals\Like This (90) by MUNNYCAT.wav,like this,active,vocals,1,90,A,multiply,10,10,100,101,105,106,0,2,2,2,0,2,2,94,,,,,,,,,,,,,,,,,,,,,,,,,,,,,,,321.99245510000037,321.99245510000037,321.99245510000037,321.99245510000037,321.99245510000037,0.003548900014720857,321.99245510000037,True,-0.2814814814814815,-0.40555555555555556,1,0,0,ansOne,,,,,,,,,,,,,,,,,001,2022-11-01_12h24.03.448,musicalMathTest,2022.2.0,59.98710278642976,
music\active\vocals\Like This (90) by MUNNYCAT.wav,like this,active,vocals,1,90,A,multiply,10,20,200,210,204,201,0,2,2,2,0,3,3,63,,,,,,,,,,,,,,,,,,,,,,,,,,,,,,,323.4590639999951,323.4590639999951,323.4590639999951,323.4590639999951,323.4590639999951,0.003312600019853562,323.4590639999951,True,-0.30092592592592593,-0.39537037037037037,1,0,0,ansOne,,,,,,,,,,,,,,,,,001,2022-11-01_12h24.03.448,musicalMathTest,2022.2.0,59.98710278642976,
music\active\vocals\Like This (90) by MUNNYCAT.wav,like this,active,vocals,1,90,A,multiply,2,10,20,27,23,28,0,2,2,2,0,4,4,86,,,,,,,,,,,,,,,,,,,,,,,,,,,,,,,324.89242119999835,324.89242119999835,324.89242119999835,324.89242119999835,324.89242119999835,0.0033963999594561756,324.89242119999835,True,-0.11388888888888889,-0.3962962962962963,1,0,0,ansTwo,,,,,,,,,,,,,,,,,001,2022-11-01_12h24.03.448,musicalMathTest,2022.2.0,59.98710278642976,
music\active\vocals\Like This (90) by MUNNYCAT.wav,like this,active,vocals,1,90,A,subtract,61,59,2,3,8,9,0,2,2,2,0,5,5,40,,,,,,,,,,,,,,,,,,,,,,,,,,,,,,,326.04236140003195,326.04236140003195,326.04236140003195,326.04236140003195,326.04236140003195,0.00345949997426942,326.04236140003195,False,-0.10925925925925926,-0.3972222222222222,1,0,0,ansTwo,,,,,,,,,,,,,,,,,001,2022-11-01_12h24.03.448,musicalMathTest,2022.2.0,59.98710278642976,
music\active\vocals\Like This (90) by MUNNYCAT.wav,like this,active,vocals,1,90,A,add,49,47,96,100,102,99,0,2,2,2,0,6,6,16,,,,,,,,,,,,,,,,,,,,,,,,,,,,,,,327.8590291000437,327.8590291000437,327.8590291000437,327.8590291000437,327.8590291000437,0.0035744000342674553,327.8590291000437,True,0.0962962962962963,-0.40370370370370373,1,0,0,ansThree,,,,,,,,,,,,,,,,,001,2022-11-01_12h24.03.448,musicalMathTest,2022.2.0,59.98710278642976,
music\active\vocals\Like This (90) by MUNNYCAT.wav,like this,active,vocals,1,90,A,subtract,49,47,2,5,7,11,0,2,2,2,0,7,7,47,,,,,,,,,,,,,,,,,,,,,,,,,,,,,,,332.4589746000129,332.4589746000129,332.4589746000129,332.4589746000129,332.4589746000129,0.003191300027538091,332.4589746000129,True,-0.09722222222222222,-0.40555555555555556,1,0,0,ansTwo,,,,,,,,,,,,,,,,,001,2022-11-01_12h24.03.448,musicalMathTest,2022.2.0,59.98710278642976,
music\active\vocals\Like This (90) by MUNNYCAT.wav,like this,active,vocals,1,90,A,subtract,46,34,12,2,15,13,0,2,2,2,0,8,8,33,,,,,,,,,,,,,,,,,,,,,,,,,,,,,,,335.29225220001535,335.29225220001535,335.29225220001535,335.29225220001535,335.29225220001535,0.00341810000827536,335.29225220001535,True,-0.2898148148148148,-0.4009259259259259,1,0,0,ansOne,,,,,,,,,,,,,,,,,001,2022-11-01_12h24.03.448,musicalMathTest,2022.2.0,59.98710278642976,
music\active\vocals\Like This (90) by MUNNYCAT.wav,like this,active,vocals,1,90,A,add,50,46,96,98,101,99,0,2,2,2,0,9,9,18,,,,,,,,,,,,,,,,,,,,,,,,,,,,,,,341.3921988999937,341.3921988999937,341.3921988999937,341.3921988999937,341.3921988999937,0.003290699969511479,341.3921988999937,True,0.1,-0.40185185185185185,1,0,0,ansThree,,,,,,,,,,,,,,,,,001,2022-11-01_12h24.03.448,musicalMathTest,2022.2.0,59.98710278642976,
music\active\vocals\Like This (90) by MUNNYCAT.wav,like this,active,vocals,1,90,A,multiply,13,10,130,132,133,137,0,2,2,2,0,10,10,69,,,,,,,,,,,,,,,,,,,,,,,,,,,,,,,343.15882730000885,343.15882730000885,343.15882730000885,343.15882730000885,343.15882730000885,0.0033831000328063965,343.15882730000885,True,-0.29814814814814816,-0.4,1,0,0,ansOne,,,,,,,,,,,,,,,,,001,2022-11-01_12h24.03.448,musicalMathTest,2022.2.0,59.98710278642976,
music\active\vocals\Like This (90) by MUNNYCAT.wav,like this,active,vocals,1,90,A,multiply,7,2,14,18,20,18,0,2,2,2,0,11,11,116,,,,,,,,,,,,,,,,,,,,,,,,,,,,,,,344.75874280004064,344.75874280004064,344.75874280004064,344.75874280004064,344.75874280004064,0.003194499993696809,344.75874280004064,True,-0.3074074074074074,-0.39444444444444443,1,0,0,ansOne,,,,,,,,,,,,,,,,,001,2022-11-01_12h24.03.448,musicalMathTest,2022.2.0,59.98710278642976,
music\active\vocals\Like This (90) by MUNNYCAT.wav,like this,active,vocals,1,90,A,subtract,46,12,34,38,24,42,0,2,2,2,0,12,12,41,,,,,,,,,,,,,,,,,,,,,,,,,,,,,,,346.6254546000273,346.6254546000273,346.6254546000273,346.6254546000273,346.6254546000273,0.0033423000131733716,346.6254546000273,True,-0.09537037037037037,-0.3962962962962963,1,0,0,ansTwo,,,,,,,,,,,,,,,,,001,2022-11-01_12h24.03.448,musicalMathTest,2022.2.0,59.98710278642976,
music\active\vocals\Like This (90) by MUNNYCAT.wav,like this,active,vocals,1,90,A,multiply,2,7,14,16,17,22,0,2,2,2,0,13,13,88,,,,,,,,,,,,,,,,,,,,,,,,,,,,,,,351.0920471000136,351.0920471000136,351.0920471000136,351.0920471000136,351.0920471000136,0.00316909997491166,351.0920471000136,True,0.09722222222222222,-0.40185185185185185,1,0,0,ansThree,,,,,,,,,,,,,,,,,001,2022-11-01_12h24.03.448,musicalMathTest,2022.2.0,59.98710278642976,
music\active\vocals\Like This (90) by MUNNYCAT.wav,like this,active,vocals,1,90,A,subtract,47,33,14,21,18,4,0,2,2,2,0,14,14,35,,,,,,,,,,,,,,,,,,,,,,,,,,,,,,,352.8420310000074,352.8420310000074,352.8420310000074,352.8420310000074,352.8420310000074,0.003283799975179136,352.8420310000074,True,-0.08148148148148149,-0.4027777777777778,1,0,0,ansTwo,,,,,,,,,,,,,,,,,001,2022-11-01_12h24.03.448,musicalMathTest,2022.2.0,59.98710278642976,
music\active\vocals\Like This (90) by MUNNYCAT.wav,like this,active,vocals,1,90,A,subtract,41,33,8,16,12,16,0,2,2,2,0,15,15,32,,,,,,,,,,,,,,,,,,,,,,,,,,,,,,,358.20861480000895,358.20861480000895,358.20861480000895,358.20861480000895,358.20861480000895,0.003152300021611154,358.20861480000895,True,-0.09722222222222222,-0.39814814814814814,1,0,0,ansTwo,,,,,,,,,,,,,,,,,001,2022-11-01_12h24.03.448,musicalMathTest,2022.2.0,59.98710278642976,
music\active\vocals\Like This (90) by MUNNYCAT.wav,like this,active,vocals,1,90,A,subtract,51,34,17,20,21,23,0,2,2,2,0,16,16,46,,,,,,,,,,,,,,,,,,,,,,,,,,,,,,,361.9084671000019,361.9084671000019,361.9084671000019,361.9084671000019,361.9084671000019,0.0035114000202156603,361.9084671000019,True,-0.10555555555555556,-0.4027777777777778,1,0,0,ansTwo,,,,,,,,,,,,,,,,,001,2022-11-01_12h24.03.448,musicalMathTest,2022.2.0,59.98710278642976,
music\active\vocals\Like This (90) by MUNNYCAT.wav,like this,active,vocals,1,90,A,multiply,7,10,70,78,71,80,0,2,2,2,0,17,17,92,,,,,,,,,,,,,,,,,,,,,,,,,,,,,,,371.79176270001335,371.79176270001335,371.79176270001335,371.79176270001335,371.79176270001335,0.0032665000180713832,371.79176270001335,True,-0.11481481481481481,-0.3972222222222222,1,0,0,ansTwo,,,,,,,,,,,,,,,,,001,2022-11-01_12h24.03.448,musicalMathTest,2022.2.0,59.98710278642976,
music\active\vocals\Like This (90) by MUNNYCAT.wav,like this,active,vocals,1,90,A,multiply,10,13,130,133,135,139,0,2,2,2,0,18,18,97,,,,,,,,,,,,,,,,,,,,,,,,,,,,,,,374.24164459999884,374.24164459999884,374.24164459999884,374.24164459999884,374.24164459999884,0.0035856000031344593,374.24164459999884,True,-0.1,-0.3990740740740741,1,0,0,ansTwo,,,,,,,,,,,,,,,,,001,2022-11-01_12h24.03.448,musicalMathTest,2022.2.0,59.98710278642976,
music\active\vocals\Like This (90) by MUNNYCAT.wav,like this,active,vocals,1,90,A,add,41,12,53,59,55,63,0,2,2,2,0,19,19,13,,,,,,,,,,,,,,,,,,,,,,,,,,,,,,,375.25829020002857,375.25829020002857,375.25829020002857,375.25829020002857,375.25829020002857,0.0032328000525012612,375.25829020002857,True,-0.30833333333333335,-0.4,1,0,0,ansOne,,,,,,,,,,,,,,,,,001,2022-11-01_12h24.03.448,musicalMathTest,2022.2.0,59.98710278642976,
music\active\vocals\Like This (90) by MUNNYCAT.wav,like this,active,vocals,1,90,A,subtract,41,12,29,37,39,32,0,2,2,2,0,20,20,44,,,,,,,,,,,,,,,,,,,,,,,,,,,,,,,378.82490760000655,378.82490760000655,378.82490760000655,378.82490760000655,378.82490760000655,0.003390299971215427,378.82490760000655,True,-0.10462962962962963,-0.4,1,0,0,ansTwo,,,,,,,,,,,,,,,,,001,2022-11-01_12h24.03.448,musicalMathTest,2022.2.0,59.98710278642976,
music\active\vocals\Like This (90) by MUNNYCAT.wav,like this,active,vocals,1,90,A,multiply,10,10,100,103,105,110,0,2,2,2,0,21,21,66,,,,,,,,,,,,,,,,,,,,,,,,,,,,,,,381.9249124000198,381.9249124000198,381.9249124000198,381.9249124000198,381.9249124000198,0.003263399994466454,381.9249124000198,True,-0.10462962962962963,-0.39814814814814814,1,0,0,ansTwo,,,,,,,,,,,,,,,,,001,2022-11-01_12h24.03.448,musicalMathTest,2022.2.0,59.98710278642976,
music\active\vocals\Like This (90) by MUNNYCAT.wav,like this,active,vocals,1,90,A,add,61,59,120,121,122,124,0,2,2,2,0,22,22,9,,,,,,,,,,,,,,,,,,,,,,,,,,,,,,,382.874850000022,382.874850000022,382.874850000022,382.874850000022,382.874850000022,0.003439699998125434,382.874850000022,True,-0.28703703703703703,-0.3972222222222222,1,0,0,ansOne,,,,,,,,,,,,,,,,,001,2022-11-01_12h24.03.448,musicalMathTest,2022.2.0,59.98710278642976,
music\silence.wav,silent,silent,silent,1,90,A,add,24,20,44,47,49,54,0,3,3,9,0,0,0,15,,,,,,,,,,,,,,,,,,,,,,,,400.0912936000386,0.0034485000069253147,0.009259259259259259,-0.36666666666666664,1,0,0,400.5080078000319,400.5080078000319,400.5080078000319,400.5080078000319,400.5080078000319,0.009382500022184104,400.5080078000319,True,-0.30833333333333335,-0.3925925925925926,1,0,0,ansOne,395.0914401000482,400.0912936000386,,,,,,,,,,,,,,,001,2022-11-01_12h24.03.448,musicalMathTest,2022.2.0,59.98710278642976,
music\silence.wav,silent,silent,silent,1,90,A,multiply,10,9,90,93,91,93,0,3,3,9,0,1,1,79,,,,,,,,,,,,,,,,,,,,,,,,,,,,,,,405.49117320001824,405.49117320001824,405.49117320001824,405.49117320001824,405.49117320001824,0.003201599989552051,405.49117320001824,True,-0.09722222222222222,-0.3972222222222222,1,0,0,ansTwo,,,,,,,,,,,,,,,,,001,2022-11-01_12h24.03.448,musicalMathTest,2022.2.0,59.98710278642976,
music\silence.wav,silent,silent,silent,1,90,A,add,45,45,90,97,92,94,0,3,3,9,0,2,2,0,,,,,,,,,,,,,,,,,,,,,,,,,,,,,,,407.00790190004045,407.00790190004045,407.00790190004045,407.00790190004045,407.00790190004045,0.003359899972565472,407.00790190004045,True,-0.2953703703703704,-0.3925925925925926,1,0,0,ansOne,,,,,,,,,,,,,,,,,001,2022-11-01_12h24.03.448,musicalMathTest,2022.2.0,59.98710278642976,
music\silence.wav,silent,silent,silent,1,90,A,add,52,18,70,71,76,74,0,3,3,9,0,3,3,20,,,,,,,,,,,,,,,,,,,,,,,,,,,,,,,410.47449960000813,410.47449960000813,410.47449960000813,410.47449960000813,410.47449960000813,0.003207199973985553,410.47449960000813,True,-0.2962962962962963,-0.4027777777777778,1,0,0,ansOne,,,,,,,,,,,,,,,,,001,2022-11-01_12h24.03.448,musicalMathTest,2022.2.0,59.98710278642976,
music\silence.wav,silent,silent,silent,1,90,A,add,38,35,73,79,80,74,0,3,3,9,0,4,4,12,,,,,,,,,,,,,,,,,,,,,,,,,,,,,,,414.82442399999127,414.82442399999127,414.82442399999127,414.82442399999127,414.82442399999127,0.00361070001963526,414.82442399999127,True,0.09259259259259259,-0.3972222222222222,1,0,0,ansThree,,,,,,,,,,,,,,,,,001,2022-11-01_12h24.03.448,musicalMathTest,2022.2.0,59.98710278642976,
music\silence.wav,silent,silent,silent,1,90,A,multiply,10,16,160,164,170,166,0,3,3,9,0,5,5,65,,,,,,,,,,,,,,,,,,,,,,,,,,,,,,,425.12427910004044,425.12427910004044,425.12427910004044,425.12427910004044,425.12427910004044,0.003229399968404323,425.12427910004044,True,-0.3138888888888889,-0.3990740740740741,1,0,0,ansOne,,,,,,,,,,,,,,,,,001,2022-11-01_12h24.03.448,musicalMathTest,2022.2.0,59.98710278642976,
music\silence.wav,silent,silent,silent,1,90,A,multiply,16,5,80,82,86,90,0,3,3,9,0,6,6,101,,,,,,,,,,,,,,,,,,,,,,,,,,,,,,,427.1241907000076,427.1241907000076,427.1241907000076,427.1241907000076,427.1241907000076,0.0032893000170588493,427.1241907000076,True,0.1,-0.3990740740740741,1,0,0,ansThree,,,,,,,,,,,,,,,,,001,2022-11-01_12h24.03.448,musicalMathTest,2022.2.0,59.98710278642976,
music\silence.wav,silent,silent,silent,1,90,A,multiply,16,2,32,34,36,38,0,3,3,9,0,7,7,117,,,,,,,,,,,,,,,,,,,,,,,,,,,,,,,428.59087310003815,428.59087310003815,428.59087310003815,428.59087310003815,428.59087310003815,0.003207499976269901,428.59087310003815,True,-0.2935185185185185,-0.3962962962962963,1,0,0,ansOne,,,,,,,,,,,,,,,,,001,2022-11-01_12h24.03.448,musicalMathTest,2022.2.0,59.98710278642976,
music\silence.wav,silent,silent,silent,1,90,A,add,45,24,69,74,72,74,0,3,3,9,0,8,8,23,,,,,,,,,,,,,,,,,,,,,,,,,,,,,,,430.5241840000381,430.5241840000381,430.5241840000381,430.5241840000381,430.5241840000381,0.0034153999877162278,430.5241840000381,True,-0.10185185185185185,-0.4,1,0,0,ansTwo,,,,,,,,,,,,,,,,,001,2022-11-01_12h24.03.448,musicalMathTest,2022.2.0,59.98710278642976,
music\silence.wav,silent,silent,silent,1,90,A,multiply,9,10,90,91,93,96,0,3,3,9,0,9,9,75,,,,,,,,,,,,,,,,,,,,,,,,,,,,,,,433.3741948000388,433.3741948000388,433.3741948000388,433.3741948000388,433.3741948000388,0.0032516999635845423,433.3741948000388,True,-0.2833333333333333,-0.39814814814814814,1,0,0,ansOne,,,,,,,,,,,,,,,,,001,2022-11-01_12h24.03.448,musicalMathTest,2022.2.0,59.98710278642976,
music\silence.wav,silent,silent,silent,1,90,A,multiply,5,10,50,51,52,53,0,3,3,9,0,10,10,68,,,,,,,,,,,,,,,,,,,,,,,,,,,,,,,434.9240992999985,434.9240992999985,434.9240992999985,434.9240992999985,434.9240992999985,0.0033768999855965376,434.9240992999985,True,-0.3148148148148148,-0.4,1,0,0,ansOne,,,,,,,,,,,,,,,,,001,2022-11-01_12h24.03.448,musicalMathTest,2022.2.0,59.98710278642976,
music\silence.wav,silent,silent,silent,1,90,A,add,35,17,52,53,59,53,0,3,3,9,0,11,11,25,,,,,,,,,,,,,,,,,,,,,,,,,,,,,,,436.5741349000018,436.5741349000018,436.5741349000018,436.5741349000018,436.5741349000018,0.003233600000385195,436.5741349000018,True,-0.09074074074074075,-0.40370370370370373,1,0,0,ansTwo,,,,,,,,,,,,,,,,,001,2022-11-01_12h24.03.448,musicalMathTest,2022.2.0,59.98710278642976,
music\silence.wav,silent,silent,silent,1,90,A,subtract,45,18,27,28,30,33,0,3,3,9,0,12,12,47,,,,,,,,,,,,,,,,,,,,,,,,,,,,,,,438.79075500002364,438.79075500002364,438.79075500002364,438.79075500002364,438.79075500002364,0.003382100025191903,438.79075500002364,True,-0.09444444444444444,-0.4046296296296296,1,0,0,ansTwo,,,,,,,,,,,,,,,,,001,2022-11-01_12h24.03.448,musicalMathTest,2022.2.0,59.98710278642976,
music\silence.wav,silent,silent,silent,1,90,A,subtract,29,20,9,12,17,12,0,3,3,9,0,13,13,33,,,,,,,,,,,,,,,,,,,,,,,,,,,,,,,446.89063239999814,446.89063239999814,446.89063239999814,446.89063239999814,446.89063239999814,0.0032165999873541296,446.89063239999814,True,-0.30277777777777776,-0.3962962962962963,1,0,0,ansOne,,,,,,,,,,,,,,,,,001,2022-11-01_12h24.03.448,musicalMathTest,2022.2.0,59.98710278642976,
music\silence.wav,silent,silent,silent,1,90,A,subtract,53,52,1,3,4,8,0,3,3,9,0,14,14,35,,,,,,,,,,,,,,,,,,,,,,,,,,,,,,,449.25721680000424,449.25721680000424,449.25721680000424,449.25721680000424,449.25721680000424,0.003338900045491755,449.25721680000424,True,-0.30092592592592593,-0.39444444444444443,1,0,0,ansOne,,,,,,,,,,,,,,,,,001,2022-11-01_12h24.03.448,musicalMathTest,2022.2.0,59.98710278642976,
music\silence.wav,silent,silent,silent,1,90,A,multiply,10,5,50,53,52,56,0,3,3,9,0,15,15,96,,,,,,,,,,,,,,,,,,,,,,,,,,,,,,,450.47386620001635,450.47386620001635,450.47386620001635,450.47386620001635,450.47386620001635,0.003464600013103336,450.47386620001635,True,-0.2851851851851852,-0.40185185185185185,1,0,0,ansOne,,,,,,,,,,,,,,,,,001,2022-11-01_12h24.03.448,musicalMathTest,2022.2.0,59.98710278642976,
music\silence.wav,silent,silent,silent,1,90,A,subtract,45,29,16,20,23,22,0,3,3,9,0,16,16,57,,,,,,,,,,,,,,,,,,,,,,,,,,,,,,,451.9405568999937,451.9405568999937,451.9405568999937,451.9405568999937,451.9405568999937,0.003344799974001944,451.9405568999937,True,-0.2953703703703704,-0.4009259259259259,1,0,0,ansOne,,,,,,,,,,,,,,,,,001,2022-11-01_12h24.03.448,musicalMathTest,2022.2.0,59.98710278642976,
music\silence.wav,silent,silent,silent,1,90,A,multiply,5,2,10,11,18,15,0,3,3,9,0,17,17,116,,,,,,,,,,,,,,,,,,,,,,,,,,,,,,,457.19043620000593,457.19043620000593,457.19043620000593,457.19043620000593,457.19043620000593,0.003261999983806163,457.19043620000593,True,-0.2935185185185185,-0.3990740740740741,1,0,0,ansOne,,,,,,,,,,,,,,,,,001,2022-11-01_12h24.03.448,musicalMathTest,2022.2.0,59.98710278642976,
music\silence.wav,silent,silent,silent,1,90,A,add,57,52,109,117,113,117,0,3,3,9,0,18,18,11,,,,,,,,,,,,,,,,,,,,,,,,,,,,,,,458.84044649999123,458.84044649999123,458.84044649999123,458.84044649999123,458.84044649999123,0.0036168000078760087,458.84044649999123,True,-0.3175925925925926,-0.4027777777777778,1,0,0,ansOne,,,,,,,,,,,,,,,,,001,2022-11-01_12h24.03.448,musicalMathTest,2022.2.0,59.98710278642976,
music\silence.wav,silent,silent,silent,1,90,A,multiply,5,5,25,35,31,35,0,3,3,9,0,19,19,112,,,,,,,,,,,,,,,,,,,,,,,,,,,,,,,461.37373500003014,461.37373500003014,461.37373500003014,461.37373500003014,461.37373500003014,0.0032137000234797597,461.37373500003014,True,0.10925925925925926,-0.4009259259259259,1,0,0,ansThree,,,,,,,,,,,,,,,,,001,2022-11-01_12h24.03.448,musicalMathTest,2022.2.0,59.98710278642976,
music\silence.wav,silent,silent,silent,1,90,A,add,30,29,59,67,62,66,0,3,3,9,0,20,20,18,,,,,,,,,,,,,,,,,,,,,,,,,,,,,,,462.55703120003454,462.55703120003454,462.55703120003454,462.55703120003454,462.55703120003454,0.003366399963852018,462.55703120003454,True,0.08796296296296297,-0.39444444444444443,1,0,0,ansThree,,,,,,,,,,,,,,,,,001,2022-11-01_12h24.03.448,musicalMathTest,2022.2.0,59.98710278642976,
music\silence.wav,silent,silent,silent,1,90,A,subtract,45,17,28,34,30,31,0,3,3,9,0,21,21,60,,,,,,,,,,,,,,,,,,,,,,,,,,,,,,,464.84036259999266,464.84036259999266,464.84036259999266,464.84036259999266,464.84036259999266,0.0032260000007227063,464.84036259999266,True,-0.10648148148148148,-0.4027777777777778,1,0,0,ansTwo,,,,,,,,,,,,,,,,,001,2022-11-01_12h24.03.448,musicalMathTest,2022.2.0,59.98710278642976,
music\silence.wav,silent,silent,silent,1,90,A,multiply,10,5,50,57,53,57,0,3,3,9,0,22,22,104,,,,,,,,,,,,,,,,,,,,,,,,,,,,,,,470.7235965,470.7235965,470.7235965,470.7235965,470.7235965,0.003389800025615841,470.7235965,True,-0.2935185185185185,-0.39444444444444443,1,0,0,ansOne,,,,,,,,,,,,,,,,,001,2022-11-01_12h24.03.448,musicalMathTest,2022.2.0,59.98710278642976,
music\silence.wav,silent,silent,silent,1,90,A,subtract,36,35,1,6,8,2,0,3,3,9,0,23,23,40,,,,,,,,,,,,,,,,,,,,,,,,,,,,,,,472.17357830004767,472.17357830004767,472.17357830004767,472.17357830004767,472.17357830004767,0.0031346000032499433,472.17357830004767,True,-0.3037037037037037,-0.3962962962962963,1,0,0,ansOne,,,,,,,,,,,,,,,,,001,2022-11-01_12h24.03.448,musicalMathTest,2022.2.0,59.98710278642976,
music\silence.wav,silent,silent,silent,1,90,A,multiply,10,8,80,90,92,83,0,3,3,9,0,24,24,94,,,,,,,,,,,,,,,,,,,,,,,,,,,,,,,474.1068850000156,474.1068850000156,474.1068850000156,474.1068850000156,474.1068850000156,0.0032902000239118934,474.1068850000156,True,0.08425925925925926,-0.39444444444444443,1,0,0,ansThree,,,,,,,,,,,,,,,,,001,2022-11-01_12h24.03.448,musicalMathTest,2022.2.0,59.98710278642976,
music\silence.wav,silent,silent,silent,1,90,A,multiply,9,10,90,91,98,95,0,3,3,9,0,25,25,107,,,,,,,,,,,,,,,,,,,,,,,,,,,,,,,475.52348340000026,475.52348340000026,475.52348340000026,475.52348340000026,475.52348340000026,0.003192199976183474,475.52348340000026,True,-0.29444444444444445,-0.3972222222222222,1,0,0,ansOne,,,,,,,,,,,,,,,,,001,2022-11-01_12h24.03.448,musicalMathTest,2022.2.0,59.98710278642976,
music\silence.wav,silent,silent,silent,1,90,A,multiply,10,9,90,91,97,95,0,3,3,9,0,26,26,103,,,,,,,,,,,,,,,,,,,,,,,,,,,,,,,476.95692430000054,476.95692430000054,476.95692430000054,476.95692430000054,476.95692430000054,0.003749099967535585,476.95692430000054,True,-0.09814814814814815,-0.3990740740740741,1,0,0,ansTwo,,,,,,,,,,,,,,,,,001,2022-11-01_12h24.03.448,musicalMathTest,2022.2.0,59.98710278642976,
music\silence.wav,silent,silent,silent,1,90,A,multiply,16,10,160,164,165,168,0,3,3,9,0,27,27,69,,,,,,,,,,,,,,,,,,,,,,,,,,,,,,,478.3568443999975,478.3568443999975,478.3568443999975,478.3568443999975,478.3568443999975,0.003396499960217625,478.3568443999975,True,0.11944444444444445,-0.3925925925925926,1,0,0,ansThree,,,,,,,,,,,,,,,,,001,2022-11-01_12h24.03.448,musicalMathTest,2022.2.0,59.98710278642976,
music\silence.wav,silent,silent,silent,1,90,A,subtract,36,35,1,4,5,8,0,3,3,9,0,28,28,34,,,,,,,,,,,,,,,,,,,,,,,,,,,,,,,479.69014850002714,479.69014850002714,479.69014850002714,479.69014850002714,479.69014850002714,0.0032654000096954405,479.69014850002714,True,-0.0962962962962963,-0.3972222222222222,1,0,0,ansTwo,,,,,,,,,,,,,,,,,001,2022-11-01_12h24.03.448,musicalMathTest,2022.2.0,59.98710278642976,
music\silence.wav,silent,silent,silent,1,90,A,multiply,8,2,16,21,20,22,0,3,3,9,0,29,29,114,,,,,,,,,,,,,,,,,,,,,,,,,,,,,,,481.7734754999983,481.7734754999983,481.7734754999983,481.7734754999983,481.7734754999983,0.0033497000113129616,481.7734754999983,True,-0.29814814814814816,-0.4009259259259259,1,0,0,ansOne,,,,,,,,,,,,,,,,,001,2022-11-01_12h24.03.448,musicalMathTest,2022.2.0,59.98710278642976,
music\silence.wav,silent,silent,silent,1,90,A,add,57,52,109,116,115,110,0,3,3,9,0,30,30,14,,,,,,,,,,,,,,,,,,,,,,,,,,,,,,,483.6401009000256,483.6401009000256,483.6401009000256,483.6401009000256,483.6401009000256,0.0034123999648727477,483.6401009000256,True,-0.11018518518518519,-0.3962962962962963,1,0,0,ansTwo,,,,,,,,,,,,,,,,,001,2022-11-01_12h24.03.448,musicalMathTest,2022.2.0,59.98710278642976,
music\silence.wav,silent,silent,silent,1,90,A,add,45,18,63,64,69,66,0,3,3,9,0,31,31,16,,,,,,,,,,,,,,,,,,,,,,,,,,,,,,,486.34001980000176,486.34001980000176,486.34001980000176,486.34001980000176,486.34001980000176,0.003465200017672032,486.34001980000176,True,-0.10925925925925926,-0.4,1,0,0,ansTwo,,,,,,,,,,,,,,,,,001,2022-11-01_12h24.03.448,musicalMathTest,2022.2.0,59.98710278642976,
music\active\instrumentals\Someone Like You (90) (Instrumental) by Poison Beaches.wav,someone like you,active,instrumental,1,90,A,add,58,54,112,117,118,114,0,4,4,6,0,0,0,6,,,,,,,,,,,,,,,,,,,,,,,,497.63990020001074,0.0029269999940879643,-0.13796296296296295,-0.3888888888888889,1,0,0,498.1575516000157,498.1575516000157,498.1575516000157,498.1575516000157,498.1575516000157,0.010228200000710785,498.1575516000157,True,-0.28888888888888886,-0.3925925925925926,1,0,0,ansOne,492.6399614000111,497.63990020001074,,,,,,,,,,,,,,,001,2022-11-01_12h24.03.448,musicalMathTest,2022.2.0,59.98710278642976,
music\active\instrumentals\Someone Like You (90) (Instrumental) by Poison Beaches.wav,someone like you,active,instrumental,1,90,A,multiply,19,5,95,101,100,97,0,4,4,6,0,1,1,100,,,,,,,,,,,,,,,,,,,,,,,,,,,,,,,500.47320619999664,500.47320619999664,500.47320619999664,500.47320619999664,500.47320619999664,0.0033561000018380582,500.47320619999664,True,-0.3111111111111111,-0.39444444444444443,1,0,0,ansOne,,,,,,,,,,,,,,,,,001,2022-11-01_12h24.03.448,musicalMathTest,2022.2.0,59.98710278642976,
music\active\instrumentals\Someone Like You (90) (Instrumental) by Poison Beaches.wav,someone like you,active,instrumental,1,90,A,multiply,2,11,22,26,29,23,0,4,4,6,0,2,2,89,,,,,,,,,,,,,,,,,,,,,,,,,,,,,,,505.7897944000433,505.7897944000433,505.7897944000433,505.7897944000433,505.7897944000433,0.003595000016503036,505.7897944000433,True,0.09814814814814815,-0.4009259259259259,1,0,0,ansThree,,,,,,,,,,,,,,,,,001,2022-11-01_12h24.03.448,musicalMathTest,2022.2.0,59.98710278642976,
music\active\instrumentals\Someone Like You (90) (Instrumental) by Poison Beaches.wav,someone like you,active,instrumental,1,90,A,multiply,6,5,30,40,36,38,0,4,4,6,0,3,3,99,,,,,,,,,,,,,,,,,,,,,,,,,,,,,,,507.97309360001236,507.97309360001236,507.97309360001236,507.97309360001236,507.97309360001236,0.0033322999952360988,507.97309360001236,True,-0.30462962962962964,-0.3972222222222222,1,0,0,ansOne,,,,,,,,,,,,,,,,,001,2022-11-01_12h24.03.448,musicalMathTest,2022.2.0,59.98710278642976,
music\active\instrumentals\Someone Like You (90) (Instrumental) by Poison Beaches.wav,someone like you,active,instrumental,1,90,A,subtract,53,26,27,31,29,34,0,4,4,6,0,4,4,61,,,,,,,,,,,,,,,,,,,,,,,,,,,,,,,512.723011300026,512.723011300026,512.723011300026,512.723011300026,512.723011300026,0.0034540999913588166,512.723011300026,True,-0.2953703703703704,-0.4009259259259259,1,0,0,ansOne,,,,,,,,,,,,,,,,,001,2022-11-01_12h24.03.448,musicalMathTest,2022.2.0,59.98710278642976,
music\active\instrumentals\Someone Like You (90) (Instrumental) by Poison Beaches.wav,someone like you,active,instrumental,1,90,A,multiply,14,5,70,73,77,75,0,4,4,6,0,5,5,98,,,,,,,,,,,,,,,,,,,,,,,,,,,,,,,518.7228951000143,518.7228951000143,518.7228951000143,518.7228951000143,518.7228951000143,0.0034815999679267406,518.7228951000143,True,-0.30462962962962964,-0.4027777777777778,1,0,0,ansOne,,,,,,,,,,,,,,,,,001,2022-11-01_12h24.03.448,musicalMathTest,2022.2.0,59.98710278642976,
music\active\instrumentals\Someone Like You (90) (Instrumental) by Poison Beaches.wav,someone like you,active,instrumental,1,90,A,multiply,10,6,60,66,63,64,0,4,4,6,0,6,6,95,,,,,,,,,,,,,,,,,,,,,,,,,,,,,,,521.4895279000048,521.4895279000048,521.4895279000048,521.4895279000048,521.4895279000048,0.003505699976813048,521.4895279000048,True,-0.3055555555555556,-0.40185185185185185,1,0,0,ansOne,,,,,,,,,,,,,,,,,001,2022-11-01_12h24.03.448,musicalMathTest,2022.2.0,59.98710278642976,
music\active\instrumentals\Someone Like You (90) (Instrumental) by Poison Beaches.wav,someone like you,active,instrumental,1,90,A,multiply,11,10,110,112,114,115,0,4,4,6,0,7,7,77,,,,,,,,,,,,,,,,,,,,,,,,,,,,,,,522.856190200022,522.856190200022,522.856190200022,522.856190200022,522.856190200022,0.003273200010880828,522.856190200022,True,-0.09814814814814815,-0.3972222222222222,1,0,0,ansTwo,,,,,,,,,,,,,,,,,001,2022-11-01_12h24.03.448,musicalMathTest,2022.2.0,59.98710278642976,
music\active\instrumentals\Someone Like You (90) (Instrumental) by Poison Beaches.wav,someone like you,active,instrumental,1,90,A,multiply,10,19,190,197,199,191,0,4,4,6,0,8,8,80,,,,,,,,,,,,,,,,,,,,,,,,,,,,,,,524.456163600029,524.456163600029,524.456163600029,524.456163600029,524.456163600029,0.0034423000179231167,524.456163600029,True,-0.31851851851851853,-0.39444444444444443,1,0,0,ansOne,,,,,,,,,,,,,,,,,001,2022-11-01_12h24.03.448,musicalMathTest,2022.2.0,59.98710278642976,
music\active\instrumentals\Someone Like You (90) (Instrumental) by Poison Beaches.wav,someone like you,active,instrumental,1,90,A,multiply,10,6,60,65,67,68,0,4,4,6,0,9,9,63,,,,,,,,,,,,,,,,,,,,,,,,,,,,,,,526.4394817000139,526.4394817000139,526.4394817000139,526.4394817000139,526.4394817000139,0.0032082999823614955,526.4394817000139,True,-0.11018518518518519,-0.39814814814814814,1,0,0,ansTwo,,,,,,,,,,,,,,,,,001,2022-11-01_12h24.03.448,musicalMathTest,2022.2.0,59.98710278642976,
music\active\instrumentals\Someone Like You (90) (Instrumental) by Poison Beaches.wav,someone like you,active,instrumental,1,90,A,add,54,11,65,71,68,75,0,4,4,6,0,10,10,25,,,,,,,,,,,,,,,,,,,,,,,,,,,,,,,527.6894527000259,527.6894527000259,527.6894527000259,527.6894527000259,527.6894527000259,0.003568700049072504,527.6894527000259,True,0.08611111111111111,-0.3972222222222222,1,0,0,ansThree,,,,,,,,,,,,,,,,,001,2022-11-01_12h24.03.448,musicalMathTest,2022.2.0,59.98710278642976,
music\active\instrumentals\Someone Like You (90) (Instrumental) by Poison Beaches.wav,someone like you,active,instrumental,1,90,A,multiply,11,5,55,61,63,61,0,4,4,6,0,11,11,85,,,,,,,,,,,,,,,,,,,,,,,,,,,,,,,531.456045400002,531.456045400002,531.456045400002,531.456045400002,531.456045400002,0.0033108999487012625,531.456045400002,True,-0.11203703703703703,-0.39444444444444443,1,0,0,ansTwo,,,,,,,,,,,,,,,,,001,2022-11-01_12h24.03.448,musicalMathTest,2022.2.0,59.98710278642976,
music\active\instrumentals\Someone Like You (90) (Instrumental) by Poison Beaches.wav,someone like you,active,instrumental,1,90,A,multiply,10,19,190,191,192,193,0,4,4,6,0,12,12,96,,,,,,,,,,,,,,,,,,,,,,,,,,,,,,,533.3060290000285,533.3060290000285,533.3060290000285,533.3060290000285,533.3060290000285,0.003422000037971884,533.3060290000285,True,-0.27685185185185185,-0.3990740740740741,1,0,0,ansOne,,,,,,,,,,,,,,,,,001,2022-11-01_12h24.03.448,musicalMathTest,2022.2.0,59.98710278642976,
music\active\instrumentals\Someone Like You (90) (Instrumental) by Poison Beaches.wav,someone like you,active,instrumental,1,90,A,subtract,58,53,5,11,7,13,0,4,4,6,0,13,13,35,,,,,,,,,,,,,,,,,,,,,,,,,,,,,,,534.9727132000262,534.9727132000262,534.9727132000262,534.9727132000262,534.9727132000262,0.0032170999911613762,534.9727132000262,True,0.09537037037037037,-0.39351851851851855,1,0,0,ansThree,,,,,,,,,,,,,,,,,001,2022-11-01_12h24.03.448,musicalMathTest,2022.2.0,59.98710278642976,
music\active\instrumentals\Someone Like You (90) (Instrumental) by Poison Beaches.wav,someone like you,active,instrumental,1,90,A,multiply,14,10,140,146,141,143,0,4,4,6,0,14,14,74,,,,,,,,,,,,,,,,,,,,,,,,,,,,,,,538.2393305000151,538.2393305000151,538.2393305000151,538.2393305000151,538.2393305000151,0.0035571999615058303,538.2393305000151,True,-0.30648148148148147,-0.39444444444444443,1,0,0,ansOne,,,,,,,,,,,,,,,,,001,2022-11-01_12h24.03.448,musicalMathTest,2022.2.0,59.98710278642976,
music\active\instrumentals\Someone Like You (90) (Instrumental) by Poison Beaches.wav,someone like you,active,instrumental,1,90,A,subtract,49,44,5,6,13,11,0,4,4,6,0,15,15,33,,,,,,,,,,,,,,,,,,,,,,,,,,,,,,,543.5225448000128,543.5225448000128,543.5225448000128,543.5225448000128,543.5225448000128,0.003380300011485815,543.5225448000128,True,-0.3,-0.39351851851851855,1,0,0,ansOne,,,,,,,,,,,,,,,,,001,2022-11-01_12h24.03.448,musicalMathTest,2022.2.0,59.98710278642976,
music\active\instrumentals\Someone Like You (90) (Instrumental) by Poison Beaches.wav,someone like you,active,instrumental,1,90,A,subtract,53,13,40,45,46,48,0,4,4,6,0,16,16,58,,,,,,,,,,,,,,,,,,,,,,,,,,,,,,,546.3892138000228,546.3892138000228,546.3892138000228,546.3892138000228,546.3892138000228,0.003371099999640137,546.3892138000228,True,-0.30092592592592593,-0.39537037037037037,1,0,0,ansOne,,,,,,,,,,,,,,,,,001,2022-11-01_12h24.03.448,musicalMathTest,2022.2.0,59.98710278642976,
music\active\instrumentals\Someone Like You (90) (Instrumental) by Poison Beaches.wav,someone like you,active,instrumental,1,90,A,multiply,5,14,70,77,74,75,0,4,4,6,0,17,17,110,,,,,,,,,,,,,,,,,,,,,,,,,,,,,,,550.9057457000017,550.9057457000017,550.9057457000017,550.9057457000017,550.9057457000017,0.003306400030851364,550.9057457000017,True,-0.29907407407407405,-0.3990740740740741,1,0,0,ansOne,,,,,,,,,,,,,,,,,001,2022-11-01_12h24.03.448,musicalMathTest,2022.2.0,59.98710278642976,
music\active\instrumentals\Someone Like You (90) (Instrumental) by Poison Beaches.wav,someone like you,active,instrumental,1,90,A,add,54,13,67,69,70,74,0,4,4,6,0,18,18,19,,,,,,,,,,,,,,,,,,,,,,,,,,,,,,,552.7223845000262,552.7223845000262,552.7223845000262,552.7223845000262,552.7223845000262,0.003784300002735108,552.7223845000262,True,-0.3,-0.4,1,0,0,ansOne,,,,,,,,,,,,,,,,,001,2022-11-01_12h24.03.448,musicalMathTest,2022.2.0,59.98710278642976,
music\active\instrumentals\Someone Like You (90) (Instrumental) by Poison Beaches.wav,someone like you,active,instrumental,1,90,A,add,54,21,75,82,78,77,0,4,4,6,0,19,19,28,,,,,,,,,,,,,,,,,,,,,,,,,,,,,,,555.6223503000219,555.6223503000219,555.6223503000219,555.6223503000219,555.6223503000219,0.003429099975619465,555.6223503000219,True,0.10092592592592593,-0.4009259259259259,1,0,0,ansThree,,,,,,,,,,,,,,,,,001,2022-11-01_12h24.03.448,musicalMathTest,2022.2.0,59.98710278642976,
music\active\instrumentals\Someone Like You (90) (Instrumental) by Poison Beaches.wav,someone like you,active,instrumental,1,90,A,add,57,53,110,114,116,112,0,4,4,6,0,20,20,1,,,,,,,,,,,,,,,,,,,,,,,,,,,,,,,558.0389680000371,558.0389680000371,558.0389680000371,558.0389680000371,558.0389680000371,0.0036955999676138163,558.0389680000371,True,0.09814814814814815,-0.40185185185185185,1,0,0,ansThree,,,,,,,,,,,,,,,,,001,2022-11-01_12h24.03.448,musicalMathTest,2022.2.0,59.98710278642976,
music\active\instrumentals\Someone Like You (90) (Instrumental) by Poison Beaches.wav,someone like you,active,instrumental,1,90,A,add,54,26,80,81,83,87,0,4,4,6,0,21,21,22,,,,,,,,,,,,,,,,,,,,,,,,,,,,,,,560.1056616000133,560.1056616000133,560.1056616000133,560.1056616000133,560.1056616000133,0.003279399999883026,560.1056616000133,True,0.09351851851851851,-0.3990740740740741,1,0,0,ansThree,,,,,,,,,,,,,,,,,001,2022-11-01_12h24.03.448,musicalMathTest,2022.2.0,59.98710278642976,
music\active\instrumentals\Someone Like You (90) (Instrumental) by Poison Beaches.wav,someone like you,active,instrumental,1,90,A,multiply,5,6,30,31,38,37,0,4,4,6,0,22,22,111,,,,,,,,,,,,,,,,,,,,,,,,,,,,,,,561.6722918000305,561.6722918000305,561.6722918000305,561.6722918000305,561.6722918000305,0.0034212000318802893,561.6722918000305,True,-0.1111111111111111,-0.3962962962962963,1,0,0,ansTwo,,,,,,,,,,,,,,,,,001,2022-11-01_12h24.03.448,musicalMathTest,2022.2.0,59.98710278642976,
music\active\instrumentals\Someone Like You (90) (Instrumental) by Poison Beaches.wav,someone like you,active,instrumental,1,90,A,subtract,44,11,33,39,23,37,0,4,4,6,0,23,23,52,,,,,,,,,,,,,,,,,,,,,,,,,,,,,,,563.1899342000252,563.1899342000252,563.1899342000252,563.1899342000252,563.1899342000252,0.003232100047171116,563.1899342000252,True,-0.3,-0.3990740740740741,1,0,0,ansOne,,,,,,,,,,,,,,,,,001,2022-11-01_12h24.03.448,musicalMathTest,2022.2.0,59.98710278642976,
music\active\instrumentals\Someone Like You (90) (Instrumental) by Poison Beaches.wav,someone like you,active,instrumental,1,90,A,add,60,58,118,122,119,123,0,4,4,6,0,24,24,0,,,,,,,,,,,,,,,,,,,,,,,,,,,,,,,568.5221807000344,568.5221807000344,568.5221807000344,568.5221807000344,568.5221807000344,0.0034608999849297106,568.5221807000344,True,-0.2972222222222222,-0.3990740740740741,1,0,0,ansOne,,,,,,,,,,,,,,,,,001,2022-11-01_12h24.03.448,musicalMathTest,2022.2.0,59.98710278642976,
music\active\instrumentals\Someone Like You (90) (Instrumental) by Poison Beaches.wav,someone like you,active,instrumental,1,90,A,multiply,5,11,55,60,61,65,0,4,4,6,0,25,25,113,,,,,,,,,,,,,,,,,,,,,,,,,,,,,,,570.6888953000307,570.6888953000307,570.6888953000307,570.6888953000307,570.6888953000307,0.003466400026809424,570.6888953000307,True,-0.09444444444444444,-0.4046296296296296,1,0,0,ansTwo,,,,,,,,,,,,,,,,,001,2022-11-01_12h24.03.448,musicalMathTest,2022.2.0,59.98710278642976,
music\active\instrumentals\Someone Like You (90) (Instrumental) by Poison Beaches.wav,someone like you,active,instrumental,1,90,A,multiply,14,10,140,144,148,141,0,4,4,6,0,26,26,90,,,,,,,,,,,,,,,,,,,,,,,,,,,,,,,573.8220928999945,573.8220928999945,573.8220928999945,573.8220928999945,573.8220928999945,0.003374400024767965,573.8220928999945,True,-0.09814814814814815,-0.38981481481481484,1,0,0,ansTwo,,,,,,,,,,,,,,,,,001,2022-11-01_12h24.03.448,musicalMathTest,2022.2.0,59.98710278642976,
music\active\instrumentals\Someone Like You (90) (Instrumental) by Poison Beaches.wav,someone like you,active,instrumental,1,90,A,multiply,10,11,110,120,111,116,0,4,4,6,0,27,27,105,,,,,,,,,,,,,,,,,,,,,,,,,,,,,,,575.6720404000371,575.6720404000371,575.6720404000371,575.6720404000371,575.6720404000371,0.003320200019516051,575.6720404000371,True,-0.09722222222222222,-0.39814814814814814,1,0,0,ansTwo,,,,,,,,,,,,,,,,,001,2022-11-01_12h24.03.448,musicalMathTest,2022.2.0,59.98710278642976,
music\active\instrumentals\Someone Like You (90) (Instrumental) by Poison Beaches.wav,someone like you,active,instrumental,1,90,A,multiply,11,10,110,120,118,116,0,4,4,6,0,28,28,69,,,,,,,,,,,,,,,,,,,,,,,,,,,,,,,577.422085200029,577.422085200029,577.422085200029,577.422085200029,577.422085200029,0.003487100009806454,577.422085200029,True,-0.31851851851851853,-0.39351851851851855,1,0,0,ansOne,,,,,,,,,,,,,,,,,001,2022-11-01_12h24.03.448,musicalMathTest,2022.2.0,59.98710278642976,
music\active\instrumentals\Someone Like You (90) (Instrumental) by Poison Beaches.wav,someone like you,active,instrumental,1,90,A,subtract,57,54,3,5,7,5,0,4,4,6,0,29,29,40,,,,,,,,,,,,,,,,,,,,,,,,,,,,,,,579.2721057000454,579.2721057000454,579.2721057000454,579.2721057000454,579.2721057000454,0.003123600035905838,579.2721057000454,True,-0.10462962962962963,-0.39537037037037037,1,0,0,ansTwo,,,,,,,,,,,,,,,,,001,2022-11-01_12h24.03.448,musicalMathTest,2022.2.0,59.98710278642976,
music\active\instrumentals\Someone Like You (90) (Instrumental) by Poison Beaches.wav,someone like you,active,instrumental,1,90,A,multiply,6,2,12,14,18,22,0,4,4,6,0,30,30,115,,,,,,,,,,,,,,,,,,,,,,,,,,,,,,,585.9052760000341,585.9052760000341,585.9052760000341,585.9052760000341,585.9052760000341,0.003350700018927455,585.9052760000341,True,0.09722222222222222,-0.39537037037037037,1,0,0,ansThree,,,,,,,,,,,,,,,,,001,2022-11-01_12h24.03.448,musicalMathTest,2022.2.0,59.98710278642976,
music\calm\vocals\You & Me featuring Ural Thomas (90) by Bridge City Revival.wav,you and me,calm,vocals,1,90,A,subtract,54,21,33,35,37,40,0,5,5,7,0,0,0,59,,,,,,,,,,,,,,,,,,,,,,,,593.5385191999958,0.003397500026039779,-0.008333333333333333,-0.2037037037037037,1,0,0,593.8718022000394,593.8718022000394,593.8718022000394,593.8718022000394,593.8718022000394,0.011337400006595999,593.8718022000394,True,-0.2833333333333333,-0.3990740740740741,1,0,0,ansOne,588.5385526000173,593.5385191999958,,,,,,,,,,,,,,,001,2022-11-01_12h24.03.448,musicalMathTest,2022.2.0,59.98710278642976,
music\calm\vocals\You & Me featuring Ural Thomas (90) by Bridge City Revival.wav,you and me,calm,vocals,1,90,A,multiply,14,2,28,34,38,42,0,5,5,7,0,1,1,114,,,,,,,,,,,,,,,,,,,,,,,,,,,,,,,595.9384889000212,595.9384889000212,595.9384889000212,595.9384889000212,595.9384889000212,0.0032174999942071736,595.9384889000212,True,0.10462962962962963,-0.3972222222222222,1,0,0,ansThree,,,,,,,,,,,,,,,,,001,2022-11-01_12h24.03.448,musicalMathTest,2022.2.0,59.98710278642976,
music\calm\vocals\You & Me featuring Ural Thomas (90) by Bridge City Revival.wav,you and me,calm,vocals,1,90,A,add,54,54,108,111,113,117,0,5,5,7,0,2,2,12,,,,,,,,,,,,,,,,,,,,,,,,,,,,,,,598.0218080999912,598.0218080999912,598.0218080999912,598.0218080999912,598.0218080999912,0.0036767999990843236,598.0218080999912,True,-0.07314814814814814,-0.3990740740740741,1,0,0,ansTwo,,,,,,,,,,,,,,,,,001,2022-11-01_12h24.03.448,musicalMathTest,2022.2.0,59.98710278642976,
music\calm\vocals\You & Me featuring Ural Thomas (90) by Bridge City Revival.wav,you and me,calm,vocals,1,90,A,multiply,10,14,140,147,144,150,0,5,5,7,0,3,3,62,,,,,,,,,,,,,,,,,,,,,,,,,,,,,,,600.5883706000168,600.5883706000168,600.5883706000168,600.5883706000168,600.5883706000168,0.003392099984921515,600.5883706000168,True,-0.09537037037037037,-0.3962962962962963,1,0,0,ansTwo,,,,,,,,,,,,,,,,,001,2022-11-01_12h24.03.448,musicalMathTest,2022.2.0,59.98710278642976,
music\calm\vocals\You & Me featuring Ural Thomas (90) by Bridge City Revival.wav,you and me,calm,vocals,1,90,A,multiply,11,2,22,29,26,27,0,5,5,7,0,4,4,117,,,,,,,,,,,,,,,,,,,,,,,,,,,,,,,601.8716998000164,601.8716998000164,601.8716998000164,601.8716998000164,601.8716998000164,0.003557100018952042,601.8716998000164,True,0.10277777777777777,-0.3990740740740741,1,0,0,ansThree,,,,,,,,,,,,,,,,,001,2022-11-01_12h24.03.448,musicalMathTest,2022.2.0,59.98710278642976,
music\calm\vocals\You & Me featuring Ural Thomas (90) by Bridge City Revival.wav,you and me,calm,vocals,1,90,A,subtract,63,58,5,7,10,11,0,5,5,7,0,5,5,38,,,,,,,,,,,,,,,,,,,,,,,,,,,,,,,603.9217190000345,603.9217190000345,603.9217190000345,603.9217190000345,603.9217190000345,0.003239199984818697,603.9217190000345,True,0.10092592592592593,-0.39537037037037037,1,0,0,ansThree,,,,,,,,,,,,,,,,,001,2022-11-01_12h24.03.448,musicalMathTest,2022.2.0,59.98710278642976,
music\calm\vocals\You & Me featuring Ural Thomas (90) by Bridge City Revival.wav,you and me,calm,vocals,1,90,A,subtract,53,13,40,45,46,48,0,5,5,7,0,6,6,58,,,,,,,,,,,,,,,,,,,,,,,,,,,,,,,609.4716230999911,609.4716230999911,609.4716230999911,609.4716230999911,609.4716230999911,0.0034549999982118607,609.4716230999911,True,-0.29814814814814816,-0.38796296296296295,1,0,0,ansOne,,,,,,,,,,,,,,,,,001,2022-11-01_12h24.03.448,musicalMathTest,2022.2.0,59.98710278642976,
music\calm\vocals\You & Me featuring Ural Thomas (90) by Bridge City Revival.wav,you and me,calm,vocals,1,90,A,subtract,56,54,2,8,5,9,0,5,5,7,0,7,7,34,,,,,,,,,,,,,,,,,,,,,,,,,,,,,,,611.0382133999956,611.0382133999956,611.0382133999956,611.0382133999956,611.0382133999956,0.00317209999775514,611.0382133999956,True,-0.30925925925925923,-0.39166666666666666,1,0,0,ansOne,,,,,,,,,,,,,,,,,001,2022-11-01_12h24.03.448,musicalMathTest,2022.2.0,59.98710278642976,
music\calm\vocals\You & Me featuring Ural Thomas (90) by Bridge City Revival.wav,you and me,calm,vocals,1,90,A,add,54,26,80,81,83,87,0,5,5,7,0,8,8,22,,,,,,,,,,,,,,,,,,,,,,,,,,,,,,,613.338187300018,613.338187300018,613.338187300018,613.338187300018,613.338187300018,0.0034847999922931194,613.338187300018,True,-0.31574074074074077,-0.3888888888888889,1,0,0,ansOne,,,,,,,,,,,,,,,,,001,2022-11-01_12h24.03.448,musicalMathTest,2022.2.0,59.98710278642976,
music\calm\vocals\You & Me featuring Ural Thomas (90) by Bridge City Revival.wav,you and me,calm,vocals,1,90,A,subtract,58,11,47,50,49,37,0,5,5,7,0,9,9,60,,,,,,,,,,,,,,,,,,,,,,,,,,,,,,,615.2882144000032,615.2882144000032,615.2882144000032,615.2882144000032,615.2882144000032,0.0032343000057153404,615.2882144000032,True,-0.0962962962962963,-0.39537037037037037,1,0,0,ansTwo,,,,,,,,,,,,,,,,,001,2022-11-01_12h24.03.448,musicalMathTest,2022.2.0,59.98710278642976,
music\calm\vocals\You & Me featuring Ural Thomas (90) by Bridge City Revival.wav,you and me,calm,vocals,1,90,A,add,57,54,111,115,118,112,0,5,5,7,0,10,10,9,,,,,,,,,,,,,,,,,,,,,,,,,,,,,,,620.1881534000277,620.1881534000277,620.1881534000277,620.1881534000277,620.1881534000277,0.003384699986781925,620.1881534000277,True,-0.10185185185185185,-0.39537037037037037,1,0,0,ansTwo,,,,,,,,,,,,,,,,,001,2022-11-01_12h24.03.448,musicalMathTest,2022.2.0,59.98710278642976,
music\calm\vocals\You & Me featuring Ural Thomas (90) by Bridge City Revival.wav,you and me,calm,vocals,1,90,A,multiply,19,10,190,195,192,196,0,5,5,7,0,11,11,108,,,,,,,,,,,,,,,,,,,,,,,,,,,,,,,625.4547096000169,625.4547096000169,625.4547096000169,625.4547096000169,625.4547096000169,0.0033324999967589974,625.4547096000169,True,0.09074074074074075,-0.39351851851851855,1,0,0,ansThree,,,,,,,,,,,,,,,,,001,2022-11-01_12h24.03.448,musicalMathTest,2022.2.0,59.98710278642976,
music\calm\vocals\You & Me featuring Ural Thomas (90) by Bridge City Revival.wav,you and me,calm,vocals,1,90,A,multiply,5,19,95,102,96,100,0,5,5,7,0,12,12,112,,,,,,,,,,,,,,,,,,,,,,,,,,,,,,,627.0046888000215,627.0046888000215,627.0046888000215,627.0046888000215,627.0046888000215,0.0035821000346913934,627.0046888000215,True,0.09907407407407408,-0.3990740740740741,1,0,0,ansThree,,,,,,,,,,,,,,,,,001,2022-11-01_12h24.03.448,musicalMathTest,2022.2.0,59.98710278642976,
music\calm\vocals\You & Me featuring Ural Thomas (90) by Bridge City Revival.wav,you and me,calm,vocals,1,90,A,add,56,54,110,116,118,122,0,5,5,7,0,13,13,3,,,,,,,,,,,,,,,,,,,,,,,,,,,,,,,632.4879753999994,632.4879753999994,632.4879753999994,632.4879753999994,632.4879753999994,0.0033363000256940722,632.4879753999994,True,-0.10740740740740741,-0.3972222222222222,1,0,0,ansTwo,,,,,,,,,,,,,,,,,001,2022-11-01_12h24.03.448,musicalMathTest,2022.2.0,59.98710278642976,
music\calm\vocals\You & Me featuring Ural Thomas (90) by Bridge City Revival.wav,you and me,calm,vocals,1,90,A,multiply,11,10,110,120,117,113,0,5,5,7,0,14,14,109,,,,,,,,,,,,,,,,,,,,,,,,,,,,,,,635.9378735999926,635.9378735999926,635.9378735999926,635.9378735999926,635.9378735999926,0.0033848999883048236,635.9378735999926,True,-0.11296296296296296,-0.3907407407407407,1,0,0,ansTwo,,,,,,,,,,,,,,,,,001,2022-11-01_12h24.03.448,musicalMathTest,2022.2.0,59.98710278642976,
music\calm\vocals\You & Me featuring Ural Thomas (90) by Bridge City Revival.wav,you and me,calm,vocals,1,90,A,multiply,6,10,60,67,62,66,0,5,5,7,0,15,15,107,,,,,,,,,,,,,,,,,,,,,,,,,,,,,,,639.5711468000081,639.5711468000081,639.5711468000081,639.5711468000081,639.5711468000081,0.003187499998603016,639.5711468000081,True,-0.10462962962962963,-0.3962962962962963,1,0,0,ansTwo,,,,,,,,,,,,,,,,,001,2022-11-01_12h24.03.448,musicalMathTest,2022.2.0,59.98710278642976,
music\calm\vocals\You & Me featuring Ural Thomas (90) by Bridge City Revival.wav,you and me,calm,vocals,1,90,A,subtract,44,21,23,28,30,24,0,5,5,7,0,16,16,55,,,,,,,,,,,,,,,,,,,,,,,,,,,,,,,640.9878168000141,640.9878168000141,640.9878168000141,640.9878168000141,640.9878168000141,0.0034585000248625875,640.9878168000141,True,-0.10277777777777777,-0.3990740740740741,1,0,0,ansTwo,,,,,,,,,,,,,,,,,001,2022-11-01_12h24.03.448,musicalMathTest,2022.2.0,59.98710278642976,
music\calm\vocals\You & Me featuring Ural Thomas (90) by Bridge City Revival.wav,you and me,calm,vocals,1,90,A,subtract,53,21,32,40,35,40,0,5,5,7,0,17,17,51,,,,,,,,,,,,,,,,,,,,,,,,,,,,,,,643.7710536000086,643.7710536000086,643.7710536000086,643.7710536000086,643.7710536000086,0.0032393999863415956,643.7710536000086,True,0.10462962962962963,-0.3972222222222222,1,0,0,ansThree,,,,,,,,,,,,,,,,,001,2022-11-01_12h24.03.448,musicalMathTest,2022.2.0,59.98710278642976,
music\calm\vocals\You & Me featuring Ural Thomas (90) by Bridge City Revival.wav,you and me,calm,vocals,1,90,A,add,54,13,67,69,70,74,0,5,5,7,0,18,18,19,,,,,,,,,,,,,,,,,,,,,,,,,,,,,,,645.8710353000206,645.8710353000206,645.8710353000206,645.8710353000206,645.8710353000206,0.0032999999821186066,645.8710353000206,True,-0.10277777777777777,-0.39537037037037037,1,0,0,ansTwo,,,,,,,,,,,,,,,,,001,2022-11-01_12h24.03.448,musicalMathTest,2022.2.0,59.98710278642976,
music\calm\vocals\You & Me featuring Ural Thomas (90) by Bridge City Revival.wav,you and me,calm,vocals,1,90,A,multiply,11,10,110,112,114,115,0,5,5,7,0,19,19,77,,,,,,,,,,,,,,,,,,,,,,,,,,,,,,,648.887707100017,648.887707100017,648.887707100017,648.887707100017,648.887707100017,0.003281500015873462,648.887707100017,True,0.10092592592592593,-0.4,1,0,0,ansThree,,,,,,,,,,,,,,,,,001,2022-11-01_12h24.03.448,musicalMathTest,2022.2.0,59.98710278642976,
music\calm\vocals\You & Me featuring Ural Thomas (90) by Bridge City Revival.wav,you and me,calm,vocals,1,90,A,subtract,54,11,43,33,48,52,0,5,5,7,0,20,20,56,,,,,,,,,,,,,,,,,,,,,,,,,,,,,,,650.6210465000477,650.6210465000477,650.6210465000477,650.6210465000477,650.6210465000477,0.0033331000013276935,650.6210465000477,True,0.0962962962962963,-0.39814814814814814,1,0,0,ansThree,,,,,,,,,,,,,,,,,001,2022-11-01_12h24.03.448,musicalMathTest,2022.2.0,59.98710278642976,
music\calm\vocals\You & Me featuring Ural Thomas (90) by Bridge City Revival.wav,you and me,calm,vocals,1,90,A,multiply,2,11,22,26,29,23,0,5,5,7,0,21,21,89,,,,,,,,,,,,,,,,,,,,,,,,,,,,,,,653.3376321000396,653.3376321000396,653.3376321000396,653.3376321000396,653.3376321000396,0.003232699993532151,653.3376321000396,True,-0.09259259259259259,-0.39351851851851855,1,0,0,ansTwo,,,,,,,,,,,,,,,,,001,2022-11-01_12h24.03.448,musicalMathTest,2022.2.0,59.98710278642976,
music\calm\vocals\You & Me featuring Ural Thomas (90) by Bridge City Revival.wav,you and me,calm,vocals,1,90,A,multiply,5,14,70,77,74,75,0,5,5,7,0,22,22,110,,,,,,,,,,,,,,,,,,,,,,,,,,,,,,,654.770929499995,654.770929499995,654.770929499995,654.770929499995,654.770929499995,0.003319399955216795,654.770929499995,True,0.10462962962962963,-0.3962962962962963,1,0,0,ansThree,,,,,,,,,,,,,,,,,001,2022-11-01_12h24.03.448,musicalMathTest,2022.2.0,59.98710278642976,
music\calm\vocals\You & Me featuring Ural Thomas (90) by Bridge City Revival.wav,you and me,calm,vocals,1,90,A,add,44,44,88,98,92,95,0,5,5,7,0,23,23,15,,,,,,,,,,,,,,,,,,,,,,,,,,,,,,,658.7208943000296,658.7208943000296,658.7208943000296,658.7208943000296,658.7208943000296,0.0032186000025831163,658.7208943000296,True,-0.30092592592592593,-0.3990740740740741,1,0,0,ansOne,,,,,,,,,,,,,,,,,001,2022-11-01_12h24.03.448,musicalMathTest,2022.2.0,59.98710278642976,
music\calm\vocals\You & Me featuring Ural Thomas (90) by Bridge City Revival.wav,you and me,calm,vocals,1,90,A,multiply,19,10,190,198,200,195,0,5,5,7,0,24,24,92,,,,,,,,,,,,,,,,,,,,,,,,,,,,,,,662.8041356000467,662.8041356000467,662.8041356000467,662.8041356000467,662.8041356000467,0.0034484000061638653,662.8041356000467,True,-0.325,-0.40555555555555556,1,0,0,ansOne,,,,,,,,,,,,,,,,,001,2022-11-01_12h24.03.448,musicalMathTest,2022.2.0,59.98710278642976,
music\calm\vocals\You & Me featuring Ural Thomas (90) by Bridge City Revival.wav,you and me,calm,vocals,1,90,A,multiply,14,5,70,76,77,71,0,5,5,7,0,25,25,82,,,,,,,,,,,,,,,,,,,,,,,,,,,,,,,665.6207606000244,665.6207606000244,665.6207606000244,665.6207606000244,665.6207606000244,0.0032936999923549592,665.6207606000244,True,-0.11666666666666667,-0.3907407407407407,1,0,0,ansTwo,,,,,,,,,,,,,,,,,001,2022-11-01_12h24.03.448,musicalMathTest,2022.2.0,59.98710278642976,
music\calm\vocals\You & Me featuring Ural Thomas (90) by Bridge City Revival.wav,you and me,calm,vocals,1,90,A,subtract,44,26,18,22,25,8,0,5,5,7,0,26,26,49,,,,,,,,,,,,,,,,,,,,,,,,,,,,,,,667.155106900027,667.155106900027,667.155106900027,667.155106900027,667.155106900027,0.0034623999963514507,667.155106900027,True,0.10648148148148148,-0.3990740740740741,1,0,0,ansThree,,,,,,,,,,,,,,,,,001,2022-11-01_12h24.03.448,musicalMathTest,2022.2.0,59.98710278642976,
music\calm\vocals\You & Me featuring Ural Thomas (90) by Bridge City Revival.wav,you and me,calm,vocals,1,90,A,add,49,44,93,101,97,103,0,5,5,7,0,27,27,2,,,,,,,,,,,,,,,,,,,,,,,,,,,,,,,674.8540014000027,674.8540014000027,674.8540014000027,674.8540014000027,674.8540014000027,0.0033097999985329807,674.8540014000027,True,0.10277777777777777,-0.3962962962962963,1,0,0,ansThree,,,,,,,,,,,,,,,,,001,2022-11-01_12h24.03.448,musicalMathTest,2022.2.0,59.98710278642976,
music\calm\vocals\You & Me featuring Ural Thomas (90) by Bridge City Revival.wav,you and me,calm,vocals,1,90,A,multiply,11,5,55,58,56,62,0,5,5,7,0,28,28,101,,,,,,,,,,,,,,,,,,,,,,,,,,,,,,,677.0039726000396,677.0039726000396,677.0039726000396,677.0039726000396,677.0039726000396,0.003333200002089143,677.0039726000396,True,-0.10555555555555556,-0.39537037037037037,1,0,0,ansTwo,,,,,,,,,,,,,,,,,001,2022-11-01_12h24.03.448,musicalMathTest,2022.2.0,59.98710278642976,
music\calm\vocals\You & Me featuring Ural Thomas (90) by Bridge City Revival.wav,you and me,calm,vocals,1,90,A,multiply,10,14,140,150,148,141,0,5,5,7,0,29,29,102,,,,,,,,,,,,,,,,,,,,,,,,,,,,,,,678.9372594000306,678.9372594000306,678.9372594000306,678.9372594000306,678.9372594000306,0.0031254999921657145,678.9372594000306,True,-0.10648148148148148,-0.38981481481481484,1,0,0,ansTwo,,,,,,,,,,,,,,,,,001,2022-11-01_12h24.03.448,musicalMathTest,2022.2.0,59.98710278642976,
music\calm\vocals\You & Me featuring Ural Thomas (90) by Bridge City Revival.wav,you and me,calm,vocals,1,90,A,multiply,10,6,60,66,63,64,0,5,5,7,0,30,30,95,,,,,,,,,,,,,,,,,,,,,,,,,,,,,,,680.2872698000283,680.2872698000283,680.2872698000283,680.2872698000283,680.2872698000283,0.003219100006390363,680.2872698000283,True,0.08333333333333333,-0.38981481481481484,1,0,0,ansThree,,,,,,,,,,,,,,,,,001,2022-11-01_12h24.03.448,musicalMathTest,2022.2.0,59.98710278642976,
music\calm\vocals\You & Me featuring Ural Thomas (90) by Bridge City Revival.wav,you and me,calm,vocals,1,90,A,multiply,19,10,190,200,202,194,0,5,5,7,0,31,31,76,,,,,,,,,,,,,,,,,,,,,,,,,,,,,,,681.4538848000229,681.4538848000229,681.4538848000229,681.4538848000229,681.4538848000229,0.0032574000069871545,681.4538848000229,True,-0.29814814814814816,-0.39444444444444443,1,0,0,ansOne,,,,,,,,,,,,,,,,,001,2022-11-01_12h24.03.448,musicalMathTest,2022.2.0,59.98710278642976,
music\calm\vocals\You & Me featuring Ural Thomas (90) by Bridge City Revival.wav,you and me,calm,vocals,1,90,A,add,58,26,84,87,91,95,0,5,5,7,0,32,32,26,,,,,,,,,,,,,,,,,,,,,,,,,,,,,,,683.0538723000209,683.0538723000209,683.0538723000209,683.0538723000209,683.0538723000209,0.0032881000079214573,683.0538723000209,True,-0.3111111111111111,-0.40370370370370373,1,0,0,ansOne,,,,,,,,,,,,,,,,,001,2022-11-01_12h24.03.448,musicalMathTest,2022.2.0,59.98710278642976,
music\calm\vocals\Brand New Feelings (90) by Land of Legs.wav,brand new feelings,calm,vocals,1,90,A,subtract,46,34,12,2,15,13,0,6,6,1,0,0,0,33,,,,,,,,,,,,,,,,,,,,,,,,696.7869776000152,0.0033702999935485423,-0.28703703703703703,-0.34444444444444444,1,0,0,697.4870326000382,697.4870326000382,697.4870326000382,697.4870326000382,697.4870326000382,0.011358499992638826,697.4870326000382,True,-0.09351851851851851,-0.3925925925925926,1,0,0,ansTwo,691.7870903000003,696.7869776000152,,,,,,,,,,,,,,,001,2022-11-01_12h24.03.448,musicalMathTest,2022.2.0,59.98710278642976,
music\calm\vocals\Brand New Feelings (90) by Land of Legs.wav,brand new feelings,calm,vocals,1,90,A,subtract,51,34,17,20,21,23,0,6,6,1,0,1,1,46,,,,,,,,,,,,,,,,,,,,,,,,,,,,,,,706.3368765999912,706.3368765999912,706.3368765999912,706.3368765999912,706.3368765999912,0.003236900025513023,706.3368765999912,True,-0.29444444444444445,-0.3972222222222222,1,0,0,ansOne,,,,,,,,,,,,,,,,,001,2022-11-01_12h24.03.448,musicalMathTest,2022.2.0,59.98710278642976,
music\calm\vocals\Brand New Feelings (90) by Land of Legs.wav,brand new feelings,calm,vocals,1,90,A,add,51,33,84,92,88,92,0,6,6,1,0,2,2,11,,,,,,,,,,,,,,,,,,,,,,,,,,,,,,,709.9534679999924,709.9534679999924,709.9534679999924,709.9534679999924,709.9534679999924,0.003413699974771589,709.9534679999924,True,-0.10277777777777777,-0.3962962962962963,1,0,0,ansTwo,,,,,,,,,,,,,,,,,001,2022-11-01_12h24.03.448,musicalMathTest,2022.2.0,59.98710278642976,
music\calm\vocals\Brand New Feelings (90) by Land of Legs.wav,brand new feelings,calm,vocals,1,90,A,subtract,50,46,4,9,8,9,0,6,6,1,0,3,3,49,,,,,,,,,,,,,,,,,,,,,,,,,,,,,,,712.5534987000283,712.5534987000283,712.5534987000283,712.5534987000283,712.5534987000283,0.0030770000303164124,712.5534987000283,True,-0.3037037037037037,-0.4,1,0,0,ansOne,,,,,,,,,,,,,,,,,001,2022-11-01_12h24.03.448,musicalMathTest,2022.2.0,59.98710278642976,
music\calm\vocals\Brand New Feelings (90) by Land of Legs.wav,brand new feelings,calm,vocals,1,90,A,multiply,2,13,26,27,29,36,0,6,6,1,0,4,4,89,,,,,,,,,,,,,,,,,,,,,,,,,,,,,,,714.7034202000359,714.7034202000359,714.7034202000359,714.7034202000359,714.7034202000359,0.0033151000388897955,714.7034202000359,True,-0.1,-0.39351851851851855,1,0,0,ansTwo,,,,,,,,,,,,,,,,,001,2022-11-01_12h24.03.448,musicalMathTest,2022.2.0,59.98710278642976,
music\calm\vocals\Brand New Feelings (90) by Land of Legs.wav,brand new feelings,calm,vocals,1,90,A,multiply,13,10,130,137,138,137,0,6,6,1,0,5,5,93,,,,,,,,,,,,,,,,,,,,,,,,,,,,,,,718.7366979999933,718.7366979999933,718.7366979999933,718.7366979999933,718.7366979999933,0.003278899996075779,718.7366979999933,True,0.09166666666666666,-0.40185185185185185,1,0,0,ansThree,,,,,,,,,,,,,,,,,001,2022-11-01_12h24.03.448,musicalMathTest,2022.2.0,59.98710278642976,
music\calm\vocals\Brand New Feelings (90) by Land of Legs.wav,brand new feelings,calm,vocals,1,90,A,add,63,59,122,125,132,126,0,6,6,1,0,6,6,6,,,,,,,,,,,,,,,,,,,,,,,,,,,,,,,720.7699692000169,720.7699692000169,720.7699692000169,720.7699692000169,720.7699692000169,0.003375299973413348,720.7699692000169,True,0.10277777777777777,-0.4009259259259259,1,0,0,ansThree,,,,,,,,,,,,,,,,,001,2022-11-01_12h24.03.448,musicalMathTest,2022.2.0,59.98710278642976,
music\calm\vocals\Brand New Feelings (90) by Land of Legs.wav,brand new feelings,calm,vocals,1,90,A,add,41,12,53,59,55,63,0,6,6,1,0,7,7,13,,,,,,,,,,,,,,,,,,,,,,,,,,,,,,,725.8199002000038,725.8199002000038,725.8199002000038,725.8199002000038,725.8199002000038,0.0032595000229775906,725.8199002000038,True,0.0962962962962963,-0.39351851851851855,1,0,0,ansThree,,,,,,,,,,,,,,,,,001,2022-11-01_12h24.03.448,musicalMathTest,2022.2.0,59.98710278642976,
music\calm\vocals\Brand New Feelings (90) by Land of Legs.wav,brand new feelings,calm,vocals,1,90,A,subtract,41,34,7,9,13,11,0,6,6,1,0,8,8,36,,,,,,,,,,,,,,,,,,,,,,,,,,,,,,,728.0532351000002,728.0532351000002,728.0532351000002,728.0532351000002,728.0532351000002,0.003472300013527274,728.0532351000002,True,-0.10092592592592593,-0.3962962962962963,1,0,0,ansTwo,,,,,,,,,,,,,,,,,001,2022-11-01_12h24.03.448,musicalMathTest,2022.2.0,59.98710278642976,
music\calm\vocals\Brand New Feelings (90) by Land of Legs.wav,brand new feelings,calm,vocals,1,90,A,add,51,34,85,92,88,86,0,6,6,1,0,9,9,15,,,,,,,,,,,,,,,,,,,,,,,,,,,,,,,730.8365299000288,730.8365299000288,730.8365299000288,730.8365299000288,730.8365299000288,0.003184200031682849,730.8365299000288,True,0.10092592592592593,-0.39351851851851855,1,0,0,ansThree,,,,,,,,,,,,,,,,,001,2022-11-01_12h24.03.448,musicalMathTest,2022.2.0,59.98710278642976,
music\calm\vocals\Brand New Feelings (90) by Land of Legs.wav,brand new feelings,calm,vocals,1,90,A,multiply,13,10,130,133,134,137,0,6,6,1,0,10,10,109,,,,,,,,,,,,,,,,,,,,,,,,,,,,,,,733.153203200025,733.153203200025,733.153203200025,733.153203200025,733.153203200025,0.003418099950067699,733.153203200025,True,0.08425925925925926,-0.3972222222222222,1,0,0,ansThree,,,,,,,,,,,,,,,,,001,2022-11-01_12h24.03.448,musicalMathTest,2022.2.0,59.98710278642976,
music\calm\vocals\Brand New Feelings (90) by Land of Legs.wav,brand new feelings,calm,vocals,1,90,A,subtract,52,51,1,8,7,9,0,6,6,1,0,11,11,58,,,,,,,,,,,,,,,,,,,,,,,,,,,,,,,734.853157900041,734.853157900041,734.853157900041,734.853157900041,734.853157900041,0.003089600009843707,734.853157900041,True,0.1,-0.3962962962962963,1,0,0,ansThree,,,,,,,,,,,,,,,,,001,2022-11-01_12h24.03.448,musicalMathTest,2022.2.0,59.98710278642976,
music\calm\vocals\Brand New Feelings (90) by Land of Legs.wav,brand new feelings,calm,vocals,1,90,A,multiply,20,5,100,106,108,105,0,6,6,1,0,12,12,83,,,,,,,,,,,,,,,,,,,,,,,,,,,,,,,736.6197399999946,736.6197399999946,736.6197399999946,736.6197399999946,736.6197399999946,0.0033993999822996557,736.6197399999946,True,-0.28703703703703703,-0.40185185185185185,1,0,0,ansOne,,,,,,,,,,,,,,,,,001,2022-11-01_12h24.03.448,musicalMathTest,2022.2.0,59.98710278642976,
music\calm\vocals\Brand New Feelings (90) by Land of Legs.wav,brand new feelings,calm,vocals,1,90,A,multiply,10,10,100,101,105,106,0,6,6,1,0,13,13,94,,,,,,,,,,,,,,,,,,,,,,,,,,,,,,,740.0363553999923,740.0363553999923,740.0363553999923,740.0363553999923,740.0363553999923,0.003216500044800341,740.0363553999923,True,0.11851851851851852,-0.4074074074074074,1,0,0,ansThree,,,,,,,,,,,,,,,,,001,2022-11-01_12h24.03.448,musicalMathTest,2022.2.0,59.98710278642976,
music\calm\vocals\Brand New Feelings (90) by Land of Legs.wav,brand new feelings,calm,vocals,1,90,A,subtract,61,59,2,5,6,8,0,6,6,1,0,14,14,43,,,,,,,,,,,,,,,,,,,,,,,,,,,,,,,741.9030392999994,741.9030392999994,741.9030392999994,741.9030392999994,741.9030392999994,0.0032617999822832644,741.9030392999994,True,-0.09907407407407408,-0.4,1,0,0,ansTwo,,,,,,,,,,,,,,,,,001,2022-11-01_12h24.03.448,musicalMathTest,2022.2.0,59.98710278642976,
music\calm\vocals\Brand New Feelings (90) by Land of Legs.wav,brand new feelings,calm,vocals,1,90,A,subtract,50,46,4,11,6,8,0,6,6,1,0,15,15,57,,,,,,,,,,,,,,,,,,,,,,,,,,,,,,,744.2863710999954,744.2863710999954,744.2863710999954,744.2863710999954,744.2863710999954,0.0031482999911531806,744.2863710999954,True,-0.30277777777777776,-0.3972222222222222,1,0,0,ansOne,,,,,,,,,,,,,,,,,001,2022-11-01_12h24.03.448,musicalMathTest,2022.2.0,59.98710278642976,
music\calm\vocals\Brand New Feelings (90) by Land of Legs.wav,brand new feelings,calm,vocals,1,90,A,subtract,51,33,18,20,26,22,0,6,6,1,0,16,16,42,,,,,,,,,,,,,,,,,,,,,,,,,,,,,,,747.1363038000418,747.1363038000418,747.1363038000418,747.1363038000418,747.1363038000418,0.0035539999953471124,747.1363038000418,True,-0.09537037037037037,-0.4,1,0,0,ansTwo,,,,,,,,,,,,,,,,,001,2022-11-01_12h24.03.448,musicalMathTest,2022.2.0,59.98710278642976,
music\calm\vocals\Brand New Feelings (90) by Land of Legs.wav,brand new feelings,calm,vocals,1,90,A,add,41,33,74,82,75,76,0,6,6,1,0,17,17,1,,,,,,,,,,,,,,,,,,,,,,,,,,,,,,,753.4862324999995,753.4862324999995,753.4862324999995,753.4862324999995,753.4862324999995,0.0033265999518334866,753.4862324999995,True,0.11481481481481481,-0.39537037037037037,1,0,0,ansThree,,,,,,,,,,,,,,,,,001,2022-11-01_12h24.03.448,musicalMathTest,2022.2.0,59.98710278642976,
music\calm\vocals\Brand New Feelings (90) by Land of Legs.wav,brand new feelings,calm,vocals,1,90,A,add,47,34,81,85,89,83,0,6,6,1,0,18,18,8,,,,,,,,,,,,,,,,,,,,,,,,,,,,,,,755.6361624000128,755.6361624000128,755.6361624000128,755.6361624000128,755.6361624000128,0.0033978999708779156,755.6361624000128,True,-0.09166666666666666,-0.39351851851851855,1,0,0,ansTwo,,,,,,,,,,,,,,,,,001,2022-11-01_12h24.03.448,musicalMathTest,2022.2.0,59.98710278642976,
music\calm\vocals\Brand New Feelings (90) by Land of Legs.wav,brand new feelings,calm,vocals,1,90,A,multiply,5,13,65,72,69,67,0,6,6,1,0,19,19,73,,,,,,,,,,,,,,,,,,,,,,,,,,,,,,,757.6361024000216,757.6361024000216,757.6361024000216,757.6361024000216,757.6361024000216,0.0032132999622263014,757.6361024000216,True,-0.09722222222222222,-0.3990740740740741,1,0,0,ansTwo,,,,,,,,,,,,,,,,,001,2022-11-01_12h24.03.448,musicalMathTest,2022.2.0,59.98710278642976,
music\calm\vocals\Brand New Feelings (90) by Land of Legs.wav,brand new feelings,calm,vocals,1,90,A,multiply,7,5,35,39,43,36,0,6,6,1,0,20,20,84,,,,,,,,,,,,,,,,,,,,,,,,,,,,,,,760.5860989000066,760.5860989000066,760.5860989000066,760.5860989000066,760.5860989000066,0.003454199992120266,760.5860989000066,False,0.09907407407407408,-0.40555555555555556,1,0,0,ansThree,,,,,,,,,,,,,,,,,001,2022-11-01_12h24.03.448,musicalMathTest,2022.2.0,59.98710278642976,
music\calm\vocals\Brand New Feelings (90) by Land of Legs.wav,brand new feelings,calm,vocals,1,90,A,multiply,5,7,35,38,40,37,0,6,6,1,0,21,21,112,,,,,,,,,,,,,,,,,,,,,,,,,,,,,,,767.169325600029,767.169325600029,767.169325600029,767.169325600029,767.169325600029,0.003124799986835569,767.169325600029,True,0.10462962962962963,-0.3990740740740741,1,0,0,ansThree,,,,,,,,,,,,,,,,,001,2022-11-01_12h24.03.448,musicalMathTest,2022.2.0,59.98710278642976,
music\calm\vocals\Brand New Feelings (90) by Land of Legs.wav,brand new feelings,calm,vocals,1,90,A,multiply,20,2,40,45,50,54,0,6,6,1,0,22,22,115,,,,,,,,,,,,,,,,,,,,,,,,,,,,,,,771.9525649000425,771.9525649000425,771.9525649000425,771.9525649000425,771.9525649000425,0.0033367000287398696,771.9525649000425,True,-0.29444444444444445,-0.39444444444444443,1,0,0,ansOne,,,,,,,,,,,,,,,,,001,2022-11-01_12h24.03.448,musicalMathTest,2022.2.0,59.98710278642976,
music\calm\vocals\Brand New Feelings (90) by Land of Legs.wav,brand new feelings,calm,vocals,1,90,A,subtract,52,51,1,2,4,7,0,6,6,1,0,23,23,54,,,,,,,,,,,,,,,,,,,,,,,,,,,,,,,776.9858102000435,776.9858102000435,776.9858102000435,776.9858102000435,776.9858102000435,0.003258500015363097,776.9858102000435,True,0.1,-0.3972222222222222,1,0,0,ansThree,,,,,,,,,,,,,,,,,001,2022-11-01_12h24.03.448,musicalMathTest,2022.2.0,59.98710278642976,
music\calm\vocals\Brand New Feelings (90) by Land of Legs.wav,brand new feelings,calm,vocals,1,90,A,multiply,5,13,65,70,73,71,0,6,6,1,0,24,24,113,,,,,,,,,,,,,,,,,,,,,,,,,,,,,,,778.635828700033,778.635828700033,778.635828700033,778.635828700033,778.635828700033,0.0035010999999940395,778.635828700033,False,-0.30648148148148147,-0.3962962962962963,1,0,0,ansOne,,,,,,,,,,,,,,,,,001,2022-11-01_12h24.03.448,musicalMathTest,2022.2.0,59.98710278642976,
music\calm\vocals\Brand New Feelings (90) by Land of Legs.wav,brand new feelings,calm,vocals,1,90,A,add,46,41,87,91,89,93,0,6,6,1,0,25,25,17,,,,,,,,,,,,,,,,,,,,,,,,,,,,,,,780.5857795000193,780.5857795000193,780.5857795000193,780.5857795000193,780.5857795000193,0.003225599997676909,780.5857795000193,True,-0.09074074074074075,-0.39537037037037037,1,0,0,ansTwo,,,,,,,,,,,,,,,,,001,2022-11-01_12h24.03.448,musicalMathTest,2022.2.0,59.98710278642976,
music\calm\vocals\Brand New Feelings (90) by Land of Legs.wav,brand new feelings,calm,vocals,1,90,A,multiply,20,5,100,101,104,108,0,6,6,1,0,26,26,99,,,,,,,,,,,,,,,,,,,,,,,,,,,,,,,783.269124100043,783.269124100043,783.269124100043,783.269124100043,783.269124100043,0.0033970000222325325,783.269124100043,True,-0.29074074074074074,-0.3990740740740741,1,0,0,ansOne,,,,,,,,,,,,,,,,,001,2022-11-01_12h24.03.448,musicalMathTest,2022.2.0,59.98710278642976,
music\calm\vocals\Brand New Feelings (90) by Land of Legs.wav,brand new feelings,calm,vocals,1,90,A,multiply,5,20,100,103,102,101,0,6,6,1,0,27,27,71,,,,,,,,,,,,,,,,,,,,,,,,,,,,,,,784.9857479000348,784.9857479000348,784.9857479000348,784.9857479000348,784.9857479000348,0.00324480002745986,784.9857479000348,True,-0.1037037037037037,-0.39351851851851855,1,0,0,ansTwo,,,,,,,,,,,,,,,,,001,2022-11-01_12h24.03.448,musicalMathTest,2022.2.0,59.98710278642976,
music\silence.wav,silent,silent,silent,1,90,A,add,19,19,38,43,48,42,0,7,7,4,0,0,0,10,,,,,,,,,,,,,,,,,,,,,,,,792.2856371999951,0.0031546999816782773,-0.07222222222222222,-0.3888888888888889,1,0,0,792.9022591999965,792.9022591999965,792.9022591999965,792.9022591999965,792.9022591999965,0.009416400047484785,792.9022591999965,True,-0.30277777777777776,-0.3972222222222222,1,0,0,ansOne,787.285700700013,792.2856371999951,,,,,,,,,,,,,,,001,2022-11-01_12h24.03.448,musicalMathTest,2022.2.0,59.98710278642976,
music\silence.wav,silent,silent,silent,1,90,A,subtract,55,16,39,40,42,41,0,7,7,4,0,1,1,40,,,,,,,,,,,,,,,,,,,,,,,,,,,,,,,795.335621300037,795.335621300037,795.335621300037,795.335621300037,795.335621300037,0.0032133000204339623,795.335621300037,True,0.08425925925925926,-0.39814814814814814,1,0,0,ansThree,,,,,,,,,,,,,,,,,001,2022-11-01_12h24.03.448,musicalMathTest,2022.2.0,59.98710278642976,
music\silence.wav,silent,silent,silent,1,90,A,multiply,4,10,40,43,44,42,0,7,7,4,0,2,2,92,,,,,,,,,,,,,,,,,,,,,,,,,,,,,,,797.6188298999914,797.6188298999914,797.6188298999914,797.6188298999914,797.6188298999914,0.003396200016140938,797.6188298999914,True,-0.0824074074074074,-0.3990740740740741,1,0,0,ansTwo,,,,,,,,,,,,,,,,,001,2022-11-01_12h24.03.448,musicalMathTest,2022.2.0,59.98710278642976,
music\silence.wav,silent,silent,silent,1,90,A,subtract,37,16,21,28,11,15,0,7,7,4,0,3,3,34,,,,,,,,,,,,,,,,,,,,,,,,,,,,,,,799.2688962999964,799.2688962999964,799.2688962999964,799.2688962999964,799.2688962999964,0.0031405999907292426,799.2688962999964,True,0.10092592592592593,-0.4009259259259259,1,0,0,ansThree,,,,,,,,,,,,,,,,,001,2022-11-01_12h24.03.448,musicalMathTest,2022.2.0,59.98710278642976,
music\silence.wav,silent,silent,silent,1,90,A,multiply,5,3,15,22,24,19,0,7,7,4,0,4,4,70,,,,,,,,,,,,,,,,,,,,,,,,,,,,,,,803.0187605000101,803.0187605000101,803.0187605000101,803.0187605000101,803.0187605000101,0.0034559000050649047,803.0187605000101,True,0.09166666666666666,-0.4027777777777778,1,0,0,ansThree,,,,,,,,,,,,,,,,,001,2022-11-01_12h24.03.448,musicalMathTest,2022.2.0,59.98710278642976,
music\silence.wav,silent,silent,silent,1,90,A,subtract,23,15,8,13,11,12,0,7,7,4,0,5,5,35,,,,,,,,,,,,,,,,,,,,,,,,,,,,,,,804.7854107000167,804.7854107000167,804.7854107000167,804.7854107000167,804.7854107000167,0.003151599958073348,804.7854107000167,True,-0.09537037037037037,-0.39537037037037037,1,0,0,ansTwo,,,,,,,,,,,,,,,,,001,2022-11-01_12h24.03.448,musicalMathTest,2022.2.0,59.98710278642976,
music\silence.wav,silent,silent,silent,1,90,A,multiply,17,2,34,36,42,40,0,7,7,4,0,6,6,117,,,,,,,,,,,,,,,,,,,,,,,,,,,,,,,808.7354056999902,808.7354056999902,808.7354056999902,808.7354056999902,808.7354056999902,0.0033507999614812434,808.7354056999902,True,-0.11481481481481481,-0.39444444444444443,1,0,0,ansTwo,,,,,,,,,,,,,,,,,001,2022-11-01_12h24.03.448,musicalMathTest,2022.2.0,59.98710278642976,
music\silence.wav,silent,silent,silent,1,90,A,multiply,10,3,30,37,35,40,0,7,7,4,0,7,7,62,,,,,,,,,,,,,,,,,,,,,,,,,,,,,,,811.5853844000376,811.5853844000376,811.5853844000376,811.5853844000376,811.5853844000376,0.003209600050467998,811.5853844000376,True,-0.09351851851851851,-0.39814814814814814,1,0,0,ansTwo,,,,,,,,,,,,,,,,,001,2022-11-01_12h24.03.448,musicalMathTest,2022.2.0,59.98710278642976,
music\silence.wav,silent,silent,silent,1,90,A,add,23,16,39,47,43,41,0,7,7,4,0,8,8,12,,,,,,,,,,,,,,,,,,,,,,,,,,,,,,,814.0019780000439,814.0019780000439,814.0019780000439,814.0019780000439,814.0019780000439,0.0033577000140212476,814.0019780000439,True,-0.30462962962962964,-0.39537037037037037,1,0,0,ansOne,,,,,,,,,,,,,,,,,001,2022-11-01_12h24.03.448,musicalMathTest,2022.2.0,59.98710278642976,
music\silence.wav,silent,silent,silent,1,90,A,multiply,15,10,150,153,157,151,0,7,7,4,0,9,9,75,,,,,,,,,,,,,,,,,,,,,,,,,,,,,,,816.5352534000413,816.5352534000413,816.5352534000413,816.5352534000413,816.5352534000413,0.0032630999921821058,816.5352534000413,True,0.09351851851851851,-0.39814814814814814,1,0,0,ansThree,,,,,,,,,,,,,,,,,001,2022-11-01_12h24.03.448,musicalMathTest,2022.2.0,59.98710278642976,
music\silence.wav,silent,silent,silent,1,90,A,multiply,5,17,85,87,86,91,0,7,7,4,0,10,10,113,,,,,,,,,,,,,,,,,,,,,,,,,,,,,,,818.0352249999996,818.0352249999996,818.0352249999996,818.0352249999996,818.0352249999996,0.003372599952854216,818.0352249999996,True,-0.2962962962962963,-0.40185185185185185,1,0,0,ansOne,,,,,,,,,,,,,,,,,001,2022-11-01_12h24.03.448,musicalMathTest,2022.2.0,59.98710278642976,
music\silence.wav,silent,silent,silent,1,90,A,multiply,10,15,150,154,156,154,0,7,7,4,0,11,11,103,,,,,,,,,,,,,,,,,,,,,,,,,,,,,,,821.1685937000439,821.1685937000439,821.1685937000439,821.1685937000439,821.1685937000439,0.003210499999113381,821.1685937000439,True,0.10648148148148148,-0.3972222222222222,1,0,0,ansThree,,,,,,,,,,,,,,,,,001,2022-11-01_12h24.03.448,musicalMathTest,2022.2.0,59.98710278642976,
