songfilename,SongName,Speed,Condition,fileblock,testdurationsec,songCondFile,CategoryType,NumOne,NumTwo,Correct,Incorrect1,Incorrect2,Incorrect3,musicTypeLoop.thisRepN,musicTypeLoop.thisTrialN,musicTypeLoop.thisN,musicTypeLoop.thisIndex,trialsMath.thisRepN,trialsMath.thisTrialN,trialsMath.thisN,trialsMath.thisIndex,partInfoImage.started,partinfomouse.started,partinfomouse.x,partinfomouse.y,partinfomouse.leftButton,partinfomouse.midButton,partinfomouse.rightButton,partInfoImage_2.started,partinfomouse_2.started,consentBox.started,partinfomouse_2.x,partinfomouse_2.y,partinfomouse_2.leftButton,partinfomouse_2.midButton,partinfomouse_2.rightButton,partinfomouse_2.clicked_name,partInfoImage_3.started,partinfomouse_3.started,partinfomouse_3.x,partinfomouse_3.y,partinfomouse_3.leftButton,partinfomouse_3.midButton,partinfomouse_3.rightButton,partInfoImage_4.started,partinfomouse_4.started,partinfomouse_4.x,partinfomouse_4.y,partinfomouse_4.leftButton,partinfomouse_4.midButton,partinfomouse_4.rightButton,question.started,ansOne.started,ansTwo.started,ansThree.started,ansFour.started,mouseclickResponse.started,debuginfo.started,correctClick,mouseclickResponse.x,mouseclickResponse.y,mouseclickResponse.leftButton,mouseclickResponse.midButton,mouseclickResponse.rightButton,mouseclickResponse.clicked_name,text.started,text.stopped,partInfoImage_5.started,partinfomouse_5.started,partinfomouse_5.x,partinfomouse_5.y,partinfomouse_5.leftButton,partinfomouse_5.midButton,partinfomouse_5.rightButton,partInfoImage_6.started,partinfomouse_6.started,partinfomouse_6.x,partinfomouse_6.y,partinfomouse_6.leftButton,partinfomouse_6.midButton,partinfomouse_6.rightButton,session,date,expName,psychopyVersion,frameRate,
,,,,,,,,,,,,,,,,,,,,,,27.62213650002377,2.519995905458927e-05,-0.1648148148148148,0.10648148148148148,1,0,0,,,,,,,,,,,,,,,,,,,,,,,,,,,,,,,,,,,,,,,,,,,,,,,,,,,,,,002,2022-11-02_00h22.36.021,musicalMathTest,2022.2.0,60.05151218790269,
,,,,,,,,,,,,,,,,,,,,,,,,,,,,,28.917921100044623,5.440000677481294e-05,28.917921100044623,0.3074074074074074,-0.45925925925925926,1,0,0,consentBox,,,,,,,,,,,,,,,,,,,,,,,,,,,,,,,,,,,,,,,,,,,,,002,2022-11-02_00h22.36.021,musicalMathTest,2022.2.0,60.05151218790269,
,,,,,,,,,,,,,,,,,,,,,,,,,,,,,,,,,,,,,,32.15646300005028,4.819995956495404e-05,0.2814814814814815,-0.1712962962962963,1,0,0,,,,,,,,,,,,,,,,,,,,,,,,,,,,,,,,,,,,,,002,2022-11-02_00h22.36.021,musicalMathTest,2022.2.0,60.05151218790269,
music\calm\vocals\Brand New Feelings (90) by Land of Legs.wav,brand new feelings,calm,vocals,1,90,A,subtract,54,13,41,49,42,45,0,0,0,1,0,0,0,50,,,,,,,,,,,,,,,,,,,,,,,,37.20124740002211,0.028068499988876283,0.2814814814814815,-0.1712962962962963,1,0,0,38.03316290001385,38.03316290001385,38.03316290001385,38.03316290001385,38.03316290001385,0.06388039997546002,38.03316290001385,True,-0.11388888888888889,-0.4009259259259259,1,0,0,ansTwo,,,,,,,,,,,,,,,,,002,2022-11-02_00h22.36.021,musicalMathTest,2022.2.0,60.05151218790269,
music\calm\vocals\Brand New Feelings (90) by Land of Legs.wav,brand new feelings,calm,vocals,1,90,A,add,58,54,112,117,118,114,0,0,0,1,0,1,1,6,,,,,,,,,,,,,,,,,,,,,,,,,,,,,,,46.517718800052535,46.517718800052535,46.517718800052535,46.517718800052535,46.517718800052535,0.018211600021459162,46.517718800052535,True,-0.287962962962963,-0.38981481481481484,1,0,0,ansOne,,,,,,,,,,,,,,,,,002,2022-11-02_00h22.36.021,musicalMathTest,2022.2.0,60.05151218790269,
music\calm\vocals\Brand New Feelings (90) by Land of Legs.wav,brand new feelings,calm,vocals,1,90,A,multiply,14,5,70,73,77,75,0,0,0,1,0,2,2,98,,,,,,,,,,,,,,,,,,,,,,,,,,,,,,,49.29814220004482,49.29814220004482,49.29814220004482,49.29814220004482,49.29814220004482,0.0148425999796018,49.29814220004482,True,-0.30092592592592593,-0.39814814814814814,1,0,0,ansOne,,,,,,,,,,,,,,,,,002,2022-11-02_00h22.36.021,musicalMathTest,2022.2.0,60.05151218790269,
music\calm\vocals\Brand New Feelings (90) by Land of Legs.wav,brand new feelings,calm,vocals,1,90,A,multiply,6,5,30,40,36,38,0,0,0,1,0,3,3,99,,,,,,,,,,,,,,,,,,,,,,,,,,,,,,,53.56419930001721,53.56419930001721,53.56419930001721,53.56419930001721,53.56419930001721,0.014252800028771162,53.56419930001721,True,0.09814814814814815,-0.40555555555555556,1,0,0,ansThree,,,,,,,,,,,,,,,,,002,2022-11-02_00h22.36.021,musicalMathTest,2022.2.0,60.05151218790269,
music\calm\vocals\Brand New Feelings (90) by Land of Legs.wav,brand new feelings,calm,vocals,1,90,A,multiply,6,10,60,68,63,67,0,0,0,1,0,4,4,91,,,,,,,,,,,,,,,,,,,,,,,,,,,,,,,55.767255900020245,55.767255900020245,55.767255900020245,55.767255900020245,55.767255900020245,0.015074800001457334,55.767255900020245,True,-0.09907407407407408,-0.4074074074074074,1,0,0,ansTwo,,,,,,,,,,,,,,,,,002,2022-11-02_00h22.36.021,musicalMathTest,2022.2.0,60.05151218790269,
music\calm\vocals\Brand New Feelings (90) by Land of Legs.wav,brand new feelings,calm,vocals,1,90,A,subtract,56,54,2,8,5,9,0,0,0,1,0,5,5,34,,,,,,,,,,,,,,,,,,,,,,,,,,,,,,,57.1969681000337,57.1969681000337,57.1969681000337,57.1969681000337,57.1969681000337,0.014529900043271482,57.1969681000337,True,-0.30185185185185187,-0.3962962962962963,1,0,0,ansOne,,,,,,,,,,,,,,,,,002,2022-11-02_00h22.36.021,musicalMathTest,2022.2.0,60.05151218790269,
music\calm\vocals\Brand New Feelings (90) by Land of Legs.wav,brand new feelings,calm,vocals,1,90,A,multiply,19,10,190,200,202,194,0,0,0,1,0,6,6,76,,,,,,,,,,,,,,,,,,,,,,,,,,,,,,,59.99672620004276,59.99672620004276,59.99672620004276,59.99672620004276,59.99672620004276,0.01308699999935925,59.99672620004276,True,-0.31851851851851853,-0.39444444444444443,1,0,0,ansOne,,,,,,,,,,,,,,,,,002,2022-11-02_00h22.36.021,musicalMathTest,2022.2.0,60.05151218790269,
music\calm\vocals\Brand New Feelings (90) by Land of Legs.wav,brand new feelings,calm,vocals,1,90,A,multiply,11,2,22,29,26,27,0,0,0,1,0,7,7,117,,,,,,,,,,,,,,,,,,,,,,,,,,,,,,,61.46323950000806,61.46323950000806,61.46323950000806,61.46323950000806,61.46323950000806,0.012187000014819205,61.46323950000806,True,-0.09537037037037037,-0.39351851851851855,1,0,0,ansTwo,,,,,,,,,,,,,,,,,002,2022-11-02_00h22.36.021,musicalMathTest,2022.2.0,60.05151218790269,
music\calm\vocals\Brand New Feelings (90) by Land of Legs.wav,brand new feelings,calm,vocals,1,90,A,add,54,11,65,71,68,75,0,0,0,1,0,8,8,25,,,,,,,,,,,,,,,,,,,,,,,,,,,,,,,63.47989730001427,63.47989730001427,63.47989730001427,63.47989730001427,63.47989730001427,0.016735200013499707,63.47989730001427,True,0.10740740740740741,-0.40185185185185185,1,0,0,ansThree,,,,,,,,,,,,,,,,,002,2022-11-02_00h22.36.021,musicalMathTest,2022.2.0,60.05151218790269,
music\calm\vocals\Brand New Feelings (90) by Land of Legs.wav,brand new feelings,calm,vocals,1,90,A,multiply,10,11,110,114,116,120,0,0,0,1,0,9,9,65,,,,,,,,,,,,,,,,,,,,,,,,,,,,,,,67.9456054000184,67.9456054000184,67.9456054000184,67.9456054000184,67.9456054000184,0.013942799996584654,67.9456054000184,True,-0.29074074074074074,-0.38796296296296295,1,0,0,ansOne,,,,,,,,,,,,,,,,,002,2022-11-02_00h22.36.021,musicalMathTest,2022.2.0,60.05151218790269,
music\calm\vocals\Brand New Feelings (90) by Land of Legs.wav,brand new feelings,calm,vocals,1,90,A,add,58,11,69,73,79,83,0,0,0,1,0,10,10,29,,,,,,,,,,,,,,,,,,,,,,,,,,,,,,,69.84536530001787,69.84536530001787,69.84536530001787,69.84536530001787,69.84536530001787,0.012749799992889166,69.84536530001787,True,-0.10462962962962963,-0.39444444444444443,1,0,0,ansTwo,,,,,,,,,,,,,,,,,002,2022-11-02_00h22.36.021,musicalMathTest,2022.2.0,60.05151218790269,
music\calm\vocals\Brand New Feelings (90) by Land of Legs.wav,brand new feelings,calm,vocals,1,90,A,multiply,6,10,60,61,68,70,0,0,0,1,0,11,11,75,,,,,,,,,,,,,,,,,,,,,,,,,,,,,,,73.82925840001553,73.82925840001553,73.82925840001553,73.82925840001553,73.82925840001553,0.016313100000843406,73.82925840001553,True,0.1,-0.39444444444444443,1,0,0,ansThree,,,,,,,,,,,,,,,,,002,2022-11-02_00h22.36.021,musicalMathTest,2022.2.0,60.05151218790269,
music\calm\vocals\Brand New Feelings (90) by Land of Legs.wav,brand new feelings,calm,vocals,1,90,A,add,54,13,67,69,70,74,0,0,0,1,0,12,12,19,,,,,,,,,,,,,,,,,,,,,,,,,,,,,,,77.76092700002482,77.76092700002482,77.76092700002482,77.76092700002482,77.76092700002482,0.010551500017754734,77.76092700002482,True,-0.30185185185185187,-0.3990740740740741,1,0,0,ansOne,,,,,,,,,,,,,,,,,002,2022-11-02_00h22.36.021,musicalMathTest,2022.2.0,60.05151218790269,
music\calm\vocals\Brand New Feelings (90) by Land of Legs.wav,brand new feelings,calm,vocals,1,90,A,subtract,44,11,33,39,23,37,0,0,0,1,0,13,13,52,,,,,,,,,,,,,,,,,,,,,,,,,,,,,,,81.57702870003413,81.57702870003413,81.57702870003413,81.57702870003413,81.57702870003413,0.012901000038255006,81.57702870003413,True,-0.29444444444444445,-0.4064814814814815,1,0,0,ansOne,,,,,,,,,,,,,,,,,002,2022-11-02_00h22.36.021,musicalMathTest,2022.2.0,60.05151218790269,
music\calm\vocals\Brand New Feelings (90) by Land of Legs.wav,brand new feelings,calm,vocals,1,90,A,add,44,26,70,77,79,78,0,0,0,1,0,14,14,18,,,,,,,,,,,,,,,,,,,,,,,,,,,,,,,88.2760840000119,88.2760840000119,88.2760840000119,88.2760840000119,88.2760840000119,0.013508400006685406,88.2760840000119,True,0.10740740740740741,-0.4009259259259259,1,0,0,ansThree,,,,,,,,,,,,,,,,,002,2022-11-02_00h22.36.021,musicalMathTest,2022.2.0,60.05151218790269,
music\calm\vocals\Brand New Feelings (90) by Land of Legs.wav,brand new feelings,calm,vocals,1,90,A,add,44,11,55,57,61,56,0,0,0,1,0,15,15,21,,,,,,,,,,,,,,,,,,,,,,,,,,,,,,,91.76060130004771,91.76060130004771,91.76060130004771,91.76060130004771,91.76060130004771,0.015271399985067546,91.76060130004771,True,-0.10648148148148148,-0.39444444444444443,1,0,0,ansTwo,,,,,,,,,,,,,,,,,002,2022-11-02_00h22.36.021,musicalMathTest,2022.2.0,60.05151218790269,
music\calm\vocals\Brand New Feelings (90) by Land of Legs.wav,brand new feelings,calm,vocals,1,90,A,add,53,26,79,80,87,80,0,0,0,1,0,16,16,30,,,,,,,,,,,,,,,,,,,,,,,,,,,,,,,93.69547580002109,93.69547580002109,93.69547580002109,93.69547580002109,93.69547580002109,0.01742230000672862,93.69547580002109,True,-0.11481481481481481,-0.4148148148148148,1,0,0,ansTwo,,,,,,,,,,,,,,,,,002,2022-11-02_00h22.36.021,musicalMathTest,2022.2.0,60.05151218790269,
music\calm\vocals\Brand New Feelings (90) by Land of Legs.wav,brand new feelings,calm,vocals,1,90,A,subtract,58,53,5,11,7,13,0,0,0,1,0,17,17,35,,,,,,,,,,,,,,,,,,,,,,,,,,,,,,,97.45809870003723,97.45809870003723,97.45809870003723,97.45809870003723,97.45809870003723,0.011751600017305464,97.45809870003723,True,0.1,-0.39166666666666666,1,0,0,ansThree,,,,,,,,,,,,,,,,,002,2022-11-02_00h22.36.021,musicalMathTest,2022.2.0,60.05151218790269,
music\calm\vocals\Brand New Feelings (90) by Land of Legs.wav,brand new feelings,calm,vocals,1,90,A,multiply,2,6,12,20,22,15,0,0,0,1,0,18,18,87,,,,,,,,,,,,,,,,,,,,,,,,,,,,,,,99.82447320001666,99.82447320001666,99.82447320001666,99.82447320001666,99.82447320001666,0.010353599966038018,99.82447320001666,True,-0.0962962962962963,-0.39814814814814814,1,0,0,ansTwo,,,,,,,,,,,,,,,,,002,2022-11-02_00h22.36.021,musicalMathTest,2022.2.0,60.05151218790269,
music\calm\vocals\Brand New Feelings (90) by Land of Legs.wav,brand new feelings,calm,vocals,1,90,A,add,56,54,110,116,118,122,0,0,0,1,0,19,19,3,,,,,,,,,,,,,,,,,,,,,,,,,,,,,,,102.07431670004735,102.07431670004735,102.07431670004735,102.07431670004735,102.07431670004735,0.01846950000617653,102.07431670004735,True,0.10925925925925926,-0.3972222222222222,1,0,0,ansThree,,,,,,,,,,,,,,,,,002,2022-11-02_00h22.36.021,musicalMathTest,2022.2.0,60.05151218790269,
music\calm\vocals\Brand New Feelings (90) by Land of Legs.wav,brand new feelings,calm,vocals,1,90,A,subtract,44,26,18,22,25,8,0,0,0,1,0,20,20,49,,,,,,,,,,,,,,,,,,,,,,,,,,,,,,,106.99016630003462,106.99016630003462,106.99016630003462,106.99016630003462,106.99016630003462,0.01267960004042834,106.99016630003462,True,-0.3,-0.39537037037037037,1,0,0,ansOne,,,,,,,,,,,,,,,,,002,2022-11-02_00h22.36.021,musicalMathTest,2022.2.0,60.05151218790269,
music\calm\vocals\Brand New Feelings (90) by Land of Legs.wav,brand new feelings,calm,vocals,1,90,A,multiply,14,10,140,146,141,143,0,0,0,1,0,21,21,74,,,,,,,,,,,,,,,,,,,,,,,,,,,,,,,119.77164240001002,119.77164240001002,119.77164240001002,119.77164240001002,119.77164240001002,0.014422999985981733,119.77164240001002,True,-0.08148148148148149,-0.3907407407407407,1,0,0,ansTwo,,,,,,,,,,,,,,,,,002,2022-11-02_00h22.36.021,musicalMathTest,2022.2.0,60.05151218790269,
music\calm\vocals\Brand New Feelings (90) by Land of Legs.wav,brand new feelings,calm,vocals,1,90,A,multiply,10,6,60,65,67,68,0,0,0,1,0,22,22,63,,,,,,,,,,,,,,,,,,,,,,,,,,,,,,,121.64059970004018,121.64059970004018,121.64059970004018,121.64059970004018,121.64059970004018,0.01487519999500364,121.64059970004018,True,-0.11296296296296296,-0.40185185185185185,1,0,0,ansTwo,,,,,,,,,,,,,,,,,002,2022-11-02_00h22.36.021,musicalMathTest,2022.2.0,60.05151218790269,
music\calm\vocals\Brand New Feelings (90) by Land of Legs.wav,brand new feelings,calm,vocals,1,90,A,multiply,11,10,110,114,115,111,0,0,0,1,0,23,23,93,,,,,,,,,,,,,,,,,,,,,,,,,,,,,,,123.38780610001413,123.38780610001413,123.38780610001413,123.38780610001413,123.38780610001413,0.012449400033801794,123.38780610001413,True,-0.1037037037037037,-0.39814814814814814,1,0,0,ansTwo,,,,,,,,,,,,,,,,,002,2022-11-02_00h22.36.021,musicalMathTest,2022.2.0,60.05151218790269,
music\calm\vocals\Brand New Feelings (90) by Land of Legs.wav,brand new feelings,calm,vocals,1,90,A,subtract,57,54,3,5,7,5,0,0,0,1,0,24,24,40,,,,,,,,,,,,,,,,,,,,,,,,,,,,,,,125.20427080005175,125.20427080005175,125.20427080005175,125.20427080005175,125.20427080005175,0.012908199976664037,125.20427080005175,True,-0.10092592592592593,-0.39537037037037037,1,0,0,ansTwo,,,,,,,,,,,,,,,,,002,2022-11-02_00h22.36.021,musicalMathTest,2022.2.0,60.05151218790269,
music\calm\vocals\Brand New Feelings (90) by Land of Legs.wav,brand new feelings,calm,vocals,1,90,A,multiply,11,10,110,120,117,113,0,0,0,1,0,25,25,109,,,,,,,,,,,,,,,,,,,,,,,,,,,,,,,127.20606280001812,127.20606280001812,127.20606280001812,127.20606280001812,127.20606280001812,0.016523899976164103,127.20606280001812,True,-0.29907407407407405,-0.4027777777777778,1,0,0,ansOne,,,,,,,,,,,,,,,,,002,2022-11-02_00h22.36.021,musicalMathTest,2022.2.0,60.05151218790269,
music\calm\instrumentals\Younger Then (90) (Instrumental) by Allebasi.wav,younger then,calm,instrumental,1,90,A,add,63,58,121,127,129,133,0,1,1,8,0,0,0,10,,,,,,,,,,,,,,,,,,,,,,,,133.80319840001175,0.012507600011304021,-0.04814814814814815,-0.32314814814814813,1,0,0,138.33573900000192,138.33573900000192,138.33573900000192,138.33573900000192,138.33573900000192,0.02564830001210794,138.33573900000192,True,-0.3055555555555556,-0.3962962962962963,1,0,0,ansOne,128.7871368000051,133.80319840001175,,,,,,,,,,,,,,,002,2022-11-02_00h22.36.021,musicalMathTest,2022.2.0,60.05151218790269,
music\calm\instrumentals\Younger Then (90) (Instrumental) by Allebasi.wav,younger then,calm,instrumental,1,90,A,multiply,11,10,110,120,118,116,0,1,1,8,0,1,1,69,,,,,,,,,,,,,,,,,,,,,,,,,,,,,,,144.20268909999868,144.20268909999868,144.20268909999868,144.20268909999868,144.20268909999868,0.015313500014599413,144.20268909999868,True,0.09074074074074075,-0.39166666666666666,1,0,0,ansThree,,,,,,,,,,,,,,,,,002,2022-11-02_00h22.36.021,musicalMathTest,2022.2.0,60.05151218790269,
music\calm\instrumentals\Younger Then (90) (Instrumental) by Allebasi.wav,younger then,calm,instrumental,1,90,A,add,58,21,79,85,82,83,0,1,1,8,0,2,2,16,,,,,,,,,,,,,,,,,,,,,,,,,,,,,,,145.85148470004788,145.85148470004788,145.85148470004788,145.85148470004788,145.85148470004788,0.016033600026275963,145.85148470004788,True,0.11018518518518519,-0.39814814814814814,1,0,0,ansThree,,,,,,,,,,,,,,,,,002,2022-11-02_00h22.36.021,musicalMathTest,2022.2.0,60.05151218790269,
music\calm\instrumentals\Younger Then (90) (Instrumental) by Allebasi.wav,younger then,calm,instrumental,1,90,A,multiply,10,11,110,120,111,116,0,1,1,8,0,3,3,105,,,,,,,,,,,,,,,,,,,,,,,,,,,,,,,150.1016890000319,150.1016890000319,150.1016890000319,150.1016890000319,150.1016890000319,0.01552259997697547,150.1016890000319,True,0.07777777777777778,-0.4,1,0,0,ansThree,,,,,,,,,,,,,,,,,002,2022-11-02_00h22.36.021,musicalMathTest,2022.2.0,60.05151218790269,
music\calm\instrumentals\Younger Then (90) (Instrumental) by Allebasi.wav,younger then,calm,instrumental,1,90,A,add,54,26,80,81,83,87,0,1,1,8,0,4,4,22,,,,,,,,,,,,,,,,,,,,,,,,,,,,,,,152.0171243000077,152.0171243000077,152.0171243000077,152.0171243000077,152.0171243000077,0.012299599999096245,152.0171243000077,True,-0.3037037037037037,-0.3972222222222222,1,0,0,ansOne,,,,,,,,,,,,,,,,,002,2022-11-02_00h22.36.021,musicalMathTest,2022.2.0,60.05151218790269,
music\calm\instrumentals\Younger Then (90) (Instrumental) by Allebasi.wav,younger then,calm,instrumental,1,90,A,add,53,21,74,77,75,77,0,1,1,8,0,5,5,20,,,,,,,,,,,,,,,,,,,,,,,,,,,,,,,154.9501978000044,154.9501978000044,154.9501978000044,154.9501978000044,154.9501978000044,0.019872100034262985,154.9501978000044,True,0.10185185185185185,-0.40555555555555556,1,0,0,ansThree,,,,,,,,,,,,,,,,,002,2022-11-02_00h22.36.021,musicalMathTest,2022.2.0,60.05151218790269,
music\calm\instrumentals\Younger Then (90) (Instrumental) by Allebasi.wav,younger then,calm,instrumental,1,90,A,subtract,58,54,4,9,8,7,0,1,1,8,0,6,6,37,,,,,,,,,,,,,,,,,,,,,,,,,,,,,,,158.8535436000093,158.8535436000093,158.8535436000093,158.8535436000093,158.8535436000093,0.014924100018106401,158.8535436000093,True,-0.10462962962962963,-0.4009259259259259,1,0,0,ansTwo,,,,,,,,,,,,,,,,,002,2022-11-02_00h22.36.021,musicalMathTest,2022.2.0,60.05151218790269,
music\calm\instrumentals\Younger Then (90) (Instrumental) by Allebasi.wav,younger then,calm,instrumental,1,90,A,add,58,53,111,118,117,113,0,1,1,8,0,7,7,4,,,,,,,,,,,,,,,,,,,,,,,,,,,,,,,160.84900300001027,160.84900300001027,160.84900300001027,160.84900300001027,160.84900300001027,0.015120500000193715,160.84900300001027,True,-0.2962962962962963,-0.3990740740740741,1,0,0,ansOne,,,,,,,,,,,,,,,,,002,2022-11-02_00h22.36.021,musicalMathTest,2022.2.0,60.05151218790269,
music\calm\instrumentals\Younger Then (90) (Instrumental) by Allebasi.wav,younger then,calm,instrumental,1,90,A,subtract,60,58,2,7,9,4,0,1,1,8,0,8,8,31,,,,,,,,,,,,,,,,,,,,,,,,,,,,,,,163.13217920000898,163.13217920000898,163.13217920000898,163.13217920000898,163.13217920000898,0.01535809994675219,163.13217920000898,True,-0.30185185185185187,-0.3962962962962963,1,0,0,ansOne,,,,,,,,,,,,,,,,,002,2022-11-02_00h22.36.021,musicalMathTest,2022.2.0,60.05151218790269,
music\calm\instrumentals\Younger Then (90) (Instrumental) by Allebasi.wav,younger then,calm,instrumental,1,90,A,multiply,2,6,12,20,22,15,0,1,1,8,0,9,9,87,,,,,,,,,,,,,,,,,,,,,,,,,,,,,,,166.86870480002835,166.86870480002835,166.86870480002835,166.86870480002835,166.86870480002835,0.015281900006812066,166.86870480002835,True,0.09722222222222222,-0.39537037037037037,1,0,0,ansThree,,,,,,,,,,,,,,,,,002,2022-11-02_00h22.36.021,musicalMathTest,2022.2.0,60.05151218790269,
music\calm\instrumentals\Younger Then (90) (Instrumental) by Allebasi.wav,younger then,calm,instrumental,1,90,A,add,58,13,71,79,76,80,0,1,1,8,0,10,10,23,,,,,,,,,,,,,,,,,,,,,,,,,,,,,,,169.01476330001606,169.01476330001606,169.01476330001606,169.01476330001606,169.01476330001606,0.013738400011789054,169.01476330001606,True,-0.30833333333333335,-0.40185185185185185,1,0,0,ansOne,,,,,,,,,,,,,,,,,002,2022-11-02_00h22.36.021,musicalMathTest,2022.2.0,60.05151218790269,
music\calm\instrumentals\Younger Then (90) (Instrumental) by Allebasi.wav,younger then,calm,instrumental,1,90,A,multiply,14,5,70,76,77,71,0,1,1,8,0,11,11,82,,,,,,,,,,,,,,,,,,,,,,,,,,,,,,,171.51444580004318,171.51444580004318,171.51444580004318,171.51444580004318,171.51444580004318,0.012944999965839088,171.51444580004318,True,0.11388888888888889,-0.38981481481481484,1,0,0,ansThree,,,,,,,,,,,,,,,,,002,2022-11-02_00h22.36.021,musicalMathTest,2022.2.0,60.05151218790269,
music\calm\instrumentals\Younger Then (90) (Instrumental) by Allebasi.wav,younger then,calm,instrumental,1,90,A,multiply,11,10,110,114,115,111,0,1,1,8,0,12,12,93,,,,,,,,,,,,,,,,,,,,,,,,,,,,,,,174.86392319999868,174.86392319999868,174.86392319999868,174.86392319999868,174.86392319999868,0.0134587999782525,174.86392319999868,True,0.09259259259259259,-0.39444444444444443,1,0,0,ansThree,,,,,,,,,,,,,,,,,002,2022-11-02_00h22.36.021,musicalMathTest,2022.2.0,60.05151218790269,
music\calm\instrumentals\Younger Then (90) (Instrumental) by Allebasi.wav,younger then,calm,instrumental,1,90,A,multiply,10,6,60,66,70,67,0,1,1,8,0,13,13,79,,,,,,,,,,,,,,,,,,,,,,,,,,,,,,,176.6805108000408,176.6805108000408,176.6805108000408,176.6805108000408,176.6805108000408,0.014346099982503802,176.6805108000408,True,-0.29814814814814816,-0.3972222222222222,1,0,0,ansOne,,,,,,,,,,,,,,,,,002,2022-11-02_00h22.36.021,musicalMathTest,2022.2.0,60.05151218790269,
music\calm\instrumentals\Younger Then (90) (Instrumental) by Allebasi.wav,younger then,calm,instrumental,1,90,A,multiply,14,10,140,144,146,143,0,1,1,8,0,14,14,66,,,,,,,,,,,,,,,,,,,,,,,,,,,,,,,179.2830934000085,179.2830934000085,179.2830934000085,179.2830934000085,179.2830934000085,0.016219799988903105,179.2830934000085,True,-0.10648148148148148,-0.39814814814814814,1,0,0,ansTwo,,,,,,,,,,,,,,,,,002,2022-11-02_00h22.36.021,musicalMathTest,2022.2.0,60.05151218790269,
music\calm\instrumentals\Younger Then (90) (Instrumental) by Allebasi.wav,younger then,calm,instrumental,1,90,A,multiply,6,10,60,67,62,66,0,1,1,8,0,15,15,107,,,,,,,,,,,,,,,,,,,,,,,,,,,,,,,180.74646510003367,180.74646510003367,180.74646510003367,180.74646510003367,180.74646510003367,0.012665099988225847,180.74646510003367,True,0.10185185185185185,-0.3990740740740741,1,0,0,ansThree,,,,,,,,,,,,,,,,,002,2022-11-02_00h22.36.021,musicalMathTest,2022.2.0,60.05151218790269,
music\calm\instrumentals\Younger Then (90) (Instrumental) by Allebasi.wav,younger then,calm,instrumental,1,90,A,subtract,53,13,40,45,46,48,0,1,1,8,0,16,16,58,,,,,,,,,,,,,,,,,,,,,,,,,,,,,,,182.31516210001428,182.31516210001428,182.31516210001428,182.31516210001428,182.31516210001428,0.014472700015176088,182.31516210001428,True,0.10740740740740741,-0.39351851851851855,1,0,0,ansThree,,,,,,,,,,,,,,,,,002,2022-11-02_00h22.36.021,musicalMathTest,2022.2.0,60.05151218790269,
music\calm\instrumentals\Younger Then (90) (Instrumental) by Allebasi.wav,younger then,calm,instrumental,1,90,A,subtract,54,26,28,18,33,37,0,1,1,8,0,17,17,53,,,,,,,,,,,,,,,,,,,,,,,,,,,,,,,185.46264010004234,185.46264010004234,185.46264010004234,185.46264010004234,185.46264010004234,0.013187500007916242,185.46264010004234,True,0.10833333333333334,-0.39166666666666666,1,0,0,ansThree,,,,,,,,,,,,,,,,,002,2022-11-02_00h22.36.021,musicalMathTest,2022.2.0,60.05151218790269,
music\calm\instrumentals\Younger Then (90) (Instrumental) by Allebasi.wav,younger then,calm,instrumental,1,90,A,multiply,5,11,55,56,63,57,0,1,1,8,0,18,18,73,,,,,,,,,,,,,,,,,,,,,,,,,,,,,,,193.21135530003812,193.21135530003812,193.21135530003812,193.21135530003812,193.21135530003812,0.012187899963464588,193.21135530003812,True,0.09814814814814815,-0.3907407407407407,1,0,0,ansThree,,,,,,,,,,,,,,,,,002,2022-11-02_00h22.36.021,musicalMathTest,2022.2.0,60.05151218790269,
music\calm\instrumentals\Younger Then (90) (Instrumental) by Allebasi.wav,younger then,calm,instrumental,1,90,A,add,53,13,66,72,70,74,0,1,1,8,0,19,19,27,,,,,,,,,,,,,,,,,,,,,,,,,,,,,,,195.1946463000495,195.1946463000495,195.1946463000495,195.1946463000495,195.1946463000495,0.015311199997086078,195.1946463000495,True,-0.3055555555555556,-0.4009259259259259,1,0,0,ansOne,,,,,,,,,,,,,,,,,002,2022-11-02_00h22.36.021,musicalMathTest,2022.2.0,60.05151218790269,
music\calm\instrumentals\Younger Then (90) (Instrumental) by Allebasi.wav,younger then,calm,instrumental,1,90,A,subtract,54,53,1,4,9,13,0,1,1,8,0,20,20,45,,,,,,,,,,,,,,,,,,,,,,,,,,,,,,,197.62890430004336,197.62890430004336,197.62890430004336,197.62890430004336,197.62890430004336,0.01555529999313876,197.62890430004336,True,-0.10833333333333334,-0.4064814814814815,1,0,0,ansTwo,,,,,,,,,,,,,,,,,002,2022-11-02_00h22.36.021,musicalMathTest,2022.2.0,60.05151218790269,
music\calm\instrumentals\Younger Then (90) (Instrumental) by Allebasi.wav,younger then,calm,instrumental,1,90,A,add,44,11,55,57,61,56,0,1,1,8,0,21,21,21,,,,,,,,,,,,,,,,,,,,,,,,,,,,,,,200.9770215000026,200.9770215000026,200.9770215000026,200.9770215000026,200.9770215000026,0.019068999972660094,200.9770215000026,True,0.08981481481481482,-0.3962962962962963,1,0,0,ansThree,,,,,,,,,,,,,,,,,002,2022-11-02_00h22.36.021,musicalMathTest,2022.2.0,60.05151218790269,
music\calm\instrumentals\Younger Then (90) (Instrumental) by Allebasi.wav,younger then,calm,instrumental,1,90,A,subtract,58,21,37,38,44,42,0,1,1,8,0,22,22,47,,,,,,,,,,,,,,,,,,,,,,,,,,,,,,,203.14348820003215,203.14348820003215,203.14348820003215,203.14348820003215,203.14348820003215,0.020693200000096112,203.14348820003215,False,-0.29814814814814816,-0.39351851851851855,1,0,0,ansOne,,,,,,,,,,,,,,,,,002,2022-11-02_00h22.36.021,musicalMathTest,2022.2.0,60.05151218790269,
music\calm\instrumentals\Younger Then (90) (Instrumental) by Allebasi.wav,younger then,calm,instrumental,1,90,A,multiply,10,19,190,192,194,195,0,1,1,8,0,23,23,64,,,,,,,,,,,,,,,,,,,,,,,,,,,,,,,208.55920260003768,208.55920260003768,208.55920260003768,208.55920260003768,208.55920260003768,0.011917600000742823,208.55920260003768,True,-0.31296296296296294,-0.38796296296296295,1,0,0,ansOne,,,,,,,,,,,,,,,,,002,2022-11-02_00h22.36.021,musicalMathTest,2022.2.0,60.05151218790269,
music\calm\instrumentals\Younger Then (90) (Instrumental) by Allebasi.wav,younger then,calm,instrumental,1,90,A,add,57,54,111,115,118,112,0,1,1,8,0,24,24,9,,,,,,,,,,,,,,,,,,,,,,,,,,,,,,,211.4920667000115,211.4920667000115,211.4920667000115,211.4920667000115,211.4920667000115,0.012697099999058992,211.4920667000115,True,0.0962962962962963,-0.40185185185185185,1,0,0,ansThree,,,,,,,,,,,,,,,,,002,2022-11-02_00h22.36.021,musicalMathTest,2022.2.0,60.05151218790269,
music\calm\instrumentals\Younger Then (90) (Instrumental) by Allebasi.wav,younger then,calm,instrumental,1,90,A,subtract,53,21,32,40,35,40,0,1,1,8,0,25,25,51,,,,,,,,,,,,,,,,,,,,,,,,,,,,,,,214.22503349999897,214.22503349999897,214.22503349999897,214.22503349999897,214.22503349999897,0.01342029997613281,214.22503349999897,True,-0.30185185185185187,-0.4,1,0,0,ansOne,,,,,,,,,,,,,,,,,002,2022-11-02_00h22.36.021,musicalMathTest,2022.2.0,60.05151218790269,
music\calm\instrumentals\Younger Then (90) (Instrumental) by Allebasi.wav,younger then,calm,instrumental,1,90,A,multiply,10,11,110,115,116,115,0,1,1,8,0,26,26,81,,,,,,,,,,,,,,,,,,,,,,,,,,,,,,,218.0594874000526,218.0594874000526,218.0594874000526,218.0594874000526,218.0594874000526,0.016990099975373596,218.0594874000526,True,-0.2953703703703704,-0.3962962962962963,1,0,0,ansOne,,,,,,,,,,,,,,,,,002,2022-11-02_00h22.36.021,musicalMathTest,2022.2.0,60.05151218790269,
music\calm\instrumentals\Younger Then (90) (Instrumental) by Allebasi.wav,younger then,calm,instrumental,1,90,A,multiply,5,14,70,77,74,75,0,1,1,8,0,27,27,110,,,,,,,,,,,,,,,,,,,,,,,,,,,,,,,220.1592383000534,220.1592383000534,220.1592383000534,220.1592383000534,220.1592383000534,0.017641099984757602,220.1592383000534,True,0.10925925925925926,-0.40370370370370373,1,0,0,ansThree,,,,,,,,,,,,,,,,,002,2022-11-02_00h22.36.021,musicalMathTest,2022.2.0,60.05151218790269,
music\calm\instrumentals\Younger Then (90) (Instrumental) by Allebasi.wav,younger then,calm,instrumental,1,90,A,multiply,11,2,22,29,26,27,0,1,1,8,0,28,28,117,,,,,,,,,,,,,,,,,,,,,,,,,,,,,,,225.45672240003478,225.45672240003478,225.45672240003478,225.45672240003478,225.45672240003478,0.015385899983812124,225.45672240003478,True,-0.10740740740740741,-0.3888888888888889,1,0,0,ansTwo,,,,,,,,,,,,,,,,,002,2022-11-02_00h22.36.021,musicalMathTest,2022.2.0,60.05151218790269,
music\calm\instrumentals\Younger Then (90) (Instrumental) by Allebasi.wav,younger then,calm,instrumental,1,90,A,subtract,58,53,5,11,7,13,0,1,1,8,0,29,29,35,,,,,,,,,,,,,,,,,,,,,,,,,,,,,,,227.3733178000548,227.3733178000548,227.3733178000548,227.3733178000548,227.3733178000548,0.01867239997955039,227.3733178000548,True,-0.30092592592592593,-0.39166666666666666,1,0,0,ansOne,,,,,,,,,,,,,,,,,002,2022-11-02_00h22.36.021,musicalMathTest,2022.2.0,60.05151218790269,
music\active\instrumentals\Someone Like You (90) (Instrumental) by Poison Beaches.wav,someone like you,active,instrumental,1,90,A,multiply,5,6,30,36,38,42,0,2,2,6,0,0,0,71,,,,,,,,,,,,,,,,,,,,,,,,235.58880130003672,0.012895299994852394,-0.12777777777777777,-0.39351851851851855,1,0,0,237.3386769000208,237.3386769000208,237.3386769000208,237.3386769000208,237.3386769000208,0.02498439996270463,237.3386769000208,True,0.11574074074074074,-0.4083333333333333,1,0,0,ansThree,230.57286480005132,235.58880130003672,,,,,,,,,,,,,,,002,2022-11-02_00h22.36.021,musicalMathTest,2022.2.0,60.05151218790269,
music\active\instrumentals\Someone Like You (90) (Instrumental) by Poison Beaches.wav,someone like you,active,instrumental,1,90,A,multiply,11,10,110,114,115,111,0,2,2,6,0,1,1,93,,,,,,,,,,,,,,,,,,,,,,,,,,,,,,,241.32122060004622,241.32122060004622,241.32122060004622,241.32122060004622,241.32122060004622,0.01226620003581047,241.32122060004622,True,0.10462962962962963,-0.39814814814814814,1,0,0,ansThree,,,,,,,,,,,,,,,,,002,2022-11-02_00h22.36.021,musicalMathTest,2022.2.0,60.05151218790269,
music\active\instrumentals\Someone Like You (90) (Instrumental) by Poison Beaches.wav,someone like you,active,instrumental,1,90,A,subtract,44,11,33,39,23,37,0,2,2,6,0,2,2,52,,,,,,,,,,,,,,,,,,,,,,,,,,,,,,,243.47069860005286,243.47069860005286,243.47069860005286,243.47069860005286,243.47069860005286,0.015023400017526,243.47069860005286,True,0.08611111111111111,-0.3907407407407407,1,0,0,ansThree,,,,,,,,,,,,,,,,,002,2022-11-02_00h22.36.021,musicalMathTest,2022.2.0,60.05151218790269,
music\active\instrumentals\Someone Like You (90) (Instrumental) by Poison Beaches.wav,someone like you,active,instrumental,1,90,A,subtract,56,53,3,11,10,8,0,2,2,6,0,3,3,42,,,,,,,,,,,,,,,,,,,,,,,,,,,,,,,246.43715230003,246.43715230003,246.43715230003,246.43715230003,246.43715230003,0.015280499996151775,246.43715230003,True,-0.30185185185185187,-0.39537037037037037,1,0,0,ansOne,,,,,,,,,,,,,,,,,002,2022-11-02_00h22.36.021,musicalMathTest,2022.2.0,60.05151218790269,
music\active\instrumentals\Someone Like You (90) (Instrumental) by Poison Beaches.wav,someone like you,active,instrumental,1,90,A,add,44,21,65,68,75,72,0,2,2,6,0,4,4,24,,,,,,,,,,,,,,,,,,,,,,,,,,,,,,,248.520226200053,248.520226200053,248.520226200053,248.520226200053,248.520226200053,0.011645900027360767,248.520226200053,False,0.10833333333333334,-0.3861111111111111,1,0,0,ansThree,,,,,,,,,,,,,,,,,002,2022-11-02_00h22.36.021,musicalMathTest,2022.2.0,60.05151218790269,
music\active\instrumentals\Someone Like You (90) (Instrumental) by Poison Beaches.wav,someone like you,active,instrumental,1,90,A,multiply,11,10,110,120,118,116,0,2,2,6,0,5,5,69,,,,,,,,,,,,,,,,,,,,,,,,,,,,,,,251.78646350000054,251.78646350000054,251.78646350000054,251.78646350000054,251.78646350000054,0.011943700024858117,251.78646350000054,True,0.1037037037037037,-0.3962962962962963,1,0,0,ansThree,,,,,,,,,,,,,,,,,002,2022-11-02_00h22.36.021,musicalMathTest,2022.2.0,60.05151218790269,
music\active\instrumentals\Someone Like You (90) (Instrumental) by Poison Beaches.wav,someone like you,active,instrumental,1,90,A,add,63,58,121,127,129,133,0,2,2,6,0,6,6,10,,,,,,,,,,,,,,,,,,,,,,,,,,,,,,,253.46962480002549,253.46962480002549,253.46962480002549,253.46962480002549,253.46962480002549,0.010911799967288971,253.46962480002549,True,-0.3074074074074074,-0.40370370370370373,1,0,0,ansOne,,,,,,,,,,,,,,,,,002,2022-11-02_00h22.36.021,musicalMathTest,2022.2.0,60.05151218790269,
music\active\instrumentals\Someone Like You (90) (Instrumental) by Poison Beaches.wav,someone like you,active,instrumental,1,90,A,subtract,58,53,5,11,7,13,0,2,2,6,0,7,7,35,,,,,,,,,,,,,,,,,,,,,,,,,,,,,,,256.56909590004943,256.56909590004943,256.56909590004943,256.56909590004943,256.56909590004943,0.010920200031250715,256.56909590004943,True,-0.30648148148148147,-0.40185185185185185,1,0,0,ansOne,,,,,,,,,,,,,,,,,002,2022-11-02_00h22.36.021,musicalMathTest,2022.2.0,60.05151218790269,
music\active\instrumentals\Someone Like You (90) (Instrumental) by Poison Beaches.wav,someone like you,active,instrumental,1,90,A,multiply,14,2,28,34,38,42,0,2,2,6,0,8,8,114,,,,,,,,,,,,,,,,,,,,,,,,,,,,,,,259.3542065000511,259.3542065000511,259.3542065000511,259.3542065000511,259.3542065000511,0.015199100016616285,259.3542065000511,True,0.09814814814814815,-0.3925925925925926,1,0,0,ansThree,,,,,,,,,,,,,,,,,002,2022-11-02_00h22.36.021,musicalMathTest,2022.2.0,60.05151218790269,
music\active\instrumentals\Someone Like You (90) (Instrumental) by Poison Beaches.wav,someone like you,active,instrumental,1,90,A,multiply,19,10,190,198,200,195,0,2,2,6,0,9,9,92,,,,,,,,,,,,,,,,,,,,,,,,,,,,,,,266.7343840000103,266.7343840000103,266.7343840000103,266.7343840000103,266.7343840000103,0.01649770000949502,266.7343840000103,True,0.10185185185185185,-0.40185185185185185,1,0,0,ansThree,,,,,,,,,,,,,,,,,002,2022-11-02_00h22.36.021,musicalMathTest,2022.2.0,60.05151218790269,
music\active\instrumentals\Someone Like You (90) (Instrumental) by Poison Beaches.wav,someone like you,active,instrumental,1,90,A,subtract,44,21,23,28,30,24,0,2,2,6,0,10,10,55,,,,,,,,,,,,,,,,,,,,,,,,,,,,,,,268.5181799000129,268.5181799000129,268.5181799000129,268.5181799000129,268.5181799000129,0.01577480003470555,268.5181799000129,True,-0.08148148148148149,-0.3907407407407407,1,0,0,ansTwo,,,,,,,,,,,,,,,,,002,2022-11-02_00h22.36.021,musicalMathTest,2022.2.0,60.05151218790269,
music\active\instrumentals\Someone Like You (90) (Instrumental) by Poison Beaches.wav,someone like you,active,instrumental,1,90,A,multiply,10,19,190,195,191,195,0,2,2,6,0,11,11,104,,,,,,,,,,,,,,,,,,,,,,,,,,,,,,,271.9711632000399,271.9711632000399,271.9711632000399,271.9711632000399,271.9711632000399,0.015941699966788292,271.9711632000399,True,-0.09351851851851851,-0.4027777777777778,1,0,0,ansTwo,,,,,,,,,,,,,,,,,002,2022-11-02_00h22.36.021,musicalMathTest,2022.2.0,60.05151218790269,
music\active\instrumentals\Someone Like You (90) (Instrumental) by Poison Beaches.wav,someone like you,active,instrumental,1,90,A,multiply,10,11,110,115,116,115,0,2,2,6,0,12,12,81,,,,,,,,,,,,,,,,,,,,,,,,,,,,,,,275.3842215000186,275.3842215000186,275.3842215000186,275.3842215000186,275.3842215000186,0.015600600047037005,275.3842215000186,True,0.08796296296296297,-0.3962962962962963,1,0,0,ansThree,,,,,,,,,,,,,,,,,002,2022-11-02_00h22.36.021,musicalMathTest,2022.2.0,60.05151218790269,
music\active\instrumentals\Someone Like You (90) (Instrumental) by Poison Beaches.wav,someone like you,active,instrumental,1,90,A,subtract,53,11,42,49,45,46,0,2,2,6,0,13,13,48,,,,,,,,,,,,,,,,,,,,,,,,,,,,,,,277.01608200004557,277.01608200004557,277.01608200004557,277.01608200004557,277.01608200004557,0.01253589999396354,277.01608200004557,True,-0.29907407407407405,-0.387037037037037,1,0,0,ansOne,,,,,,,,,,,,,,,,,002,2022-11-02_00h22.36.021,musicalMathTest,2022.2.0,60.05151218790269,
music\active\instrumentals\Someone Like You (90) (Instrumental) by Poison Beaches.wav,someone like you,active,instrumental,1,90,A,multiply,10,6,60,63,62,61,0,2,2,6,0,14,14,103,,,,,,,,,,,,,,,,,,,,,,,,,,,,,,,281.6007356000482,281.6007356000482,281.6007356000482,281.6007356000482,281.6007356000482,0.016681900015100837,281.6007356000482,True,0.1,-0.3972222222222222,1,0,0,ansThree,,,,,,,,,,,,,,,,,002,2022-11-02_00h22.36.021,musicalMathTest,2022.2.0,60.05151218790269,
music\active\instrumentals\Someone Like You (90) (Instrumental) by Poison Beaches.wav,someone like you,active,instrumental,1,90,A,multiply,11,5,55,58,56,62,0,2,2,6,0,15,15,101,,,,,,,,,,,,,,,,,,,,,,,,,,,,,,,283.7152683000313,283.7152683000313,283.7152683000313,283.7152683000313,283.7152683000313,0.012679400038905442,283.7152683000313,True,-0.29444444444444445,-0.3962962962962963,1,0,0,ansOne,,,,,,,,,,,,,,,,,002,2022-11-02_00h22.36.021,musicalMathTest,2022.2.0,60.05151218790269,
music\active\instrumentals\Someone Like You (90) (Instrumental) by Poison Beaches.wav,someone like you,active,instrumental,1,90,A,multiply,2,19,38,41,44,46,0,2,2,6,0,16,16,88,,,,,,,,,,,,,,,,,,,,,,,,,,,,,,,286.1984910000465,286.1984910000465,286.1984910000465,286.1984910000465,286.1984910000465,0.01467830000910908,286.1984910000465,True,0.10185185185185185,-0.4,1,0,0,ansThree,,,,,,,,,,,,,,,,,002,2022-11-02_00h22.36.021,musicalMathTest,2022.2.0,60.05151218790269,
music\active\instrumentals\Someone Like You (90) (Instrumental) by Poison Beaches.wav,someone like you,active,instrumental,1,90,A,multiply,19,2,38,43,41,46,0,2,2,6,0,17,17,116,,,,,,,,,,,,,,,,,,,,,,,,,,,,,,,288.06517050002003,288.06517050002003,288.06517050002003,288.06517050002003,288.06517050002003,0.014956899976823479,288.06517050002003,True,-0.2898148148148148,-0.39537037037037037,1,0,0,ansOne,,,,,,,,,,,,,,,,,002,2022-11-02_00h22.36.021,musicalMathTest,2022.2.0,60.05151218790269,
music\active\instrumentals\Someone Like You (90) (Instrumental) by Poison Beaches.wav,someone like you,active,instrumental,1,90,A,subtract,44,44,0,5,3,1,0,2,2,6,0,18,18,36,,,,,,,,,,,,,,,,,,,,,,,,,,,,,,,290.6643404000206,290.6643404000206,290.6643404000206,290.6643404000206,290.6643404000206,0.011335399991367012,290.6643404000206,True,-0.10277777777777777,-0.4027777777777778,1,0,0,ansTwo,,,,,,,,,,,,,,,,,002,2022-11-02_00h22.36.021,musicalMathTest,2022.2.0,60.05151218790269,
music\active\instrumentals\Someone Like You (90) (Instrumental) by Poison Beaches.wav,someone like you,active,instrumental,1,90,A,add,57,54,111,115,118,112,0,2,2,6,0,19,19,9,,,,,,,,,,,,,,,,,,,,,,,,,,,,,,,293.59744580002734,293.59744580002734,293.59744580002734,293.59744580002734,293.59744580002734,0.01573450001887977,293.59744580002734,True,0.1175925925925926,-0.3990740740740741,1,0,0,ansThree,,,,,,,,,,,,,,,,,002,2022-11-02_00h22.36.021,musicalMathTest,2022.2.0,60.05151218790269,
music\active\instrumentals\Someone Like You (90) (Instrumental) by Poison Beaches.wav,someone like you,active,instrumental,1,90,A,multiply,11,10,110,112,114,115,0,2,2,6,0,20,20,77,,,,,,,,,,,,,,,,,,,,,,,,,,,,,,,296.1803452000022,296.1803452000022,296.1803452000022,296.1803452000022,296.1803452000022,0.01683690003119409,296.1803452000022,True,-0.29074074074074074,-0.3962962962962963,1,0,0,ansOne,,,,,,,,,,,,,,,,,002,2022-11-02_00h22.36.021,musicalMathTest,2022.2.0,60.05151218790269,
music\active\instrumentals\Someone Like You (90) (Instrumental) by Poison Beaches.wav,someone like you,active,instrumental,1,90,A,add,53,13,66,72,70,74,0,2,2,6,0,21,21,27,,,,,,,,,,,,,,,,,,,,,,,,,,,,,,,298.2141012000502,298.2141012000502,298.2141012000502,298.2141012000502,298.2141012000502,0.01323969999793917,298.2141012000502,True,-0.31296296296296294,-0.40370370370370373,1,0,0,ansOne,,,,,,,,,,,,,,,,,002,2022-11-02_00h22.36.021,musicalMathTest,2022.2.0,60.05151218790269,
music\active\instrumentals\Someone Like You (90) (Instrumental) by Poison Beaches.wav,someone like you,active,instrumental,1,90,A,add,57,53,110,114,116,112,0,2,2,6,0,22,22,1,,,,,,,,,,,,,,,,,,,,,,,,,,,,,,,300.5462650000118,300.5462650000118,300.5462650000118,300.5462650000118,300.5462650000118,0.011025600018911064,300.5462650000118,True,-0.30648148148148147,-0.4046296296296296,1,0,0,ansOne,,,,,,,,,,,,,,,,,002,2022-11-02_00h22.36.021,musicalMathTest,2022.2.0,60.05151218790269,
music\active\instrumentals\Someone Like You (90) (Instrumental) by Poison Beaches.wav,someone like you,active,instrumental,1,90,A,multiply,14,10,140,146,141,143,0,2,2,6,0,23,23,74,,,,,,,,,,,,,,,,,,,,,,,,,,,,,,,302.86260510003194,302.86260510003194,302.86260510003194,302.86260510003194,302.86260510003194,0.014246599981561303,302.86260510003194,True,-0.2962962962962963,-0.40185185185185185,1,0,0,ansOne,,,,,,,,,,,,,,,,,002,2022-11-02_00h22.36.021,musicalMathTest,2022.2.0,60.05151218790269,
music\active\instrumentals\Someone Like You (90) (Instrumental) by Poison Beaches.wav,someone like you,active,instrumental,1,90,A,subtract,53,13,40,45,46,48,0,2,2,6,0,24,24,58,,,,,,,,,,,,,,,,,,,,,,,,,,,,,,,304.82889460003935,304.82889460003935,304.82889460003935,304.82889460003935,304.82889460003935,0.015445300028659403,304.82889460003935,True,0.1111111111111111,-0.4,1,0,0,ansThree,,,,,,,,,,,,,,,,,002,2022-11-02_00h22.36.021,musicalMathTest,2022.2.0,60.05151218790269,
music\active\instrumentals\Someone Like You (90) (Instrumental) by Poison Beaches.wav,someone like you,active,instrumental,1,90,A,multiply,5,11,55,56,63,57,0,2,2,6,0,25,25,73,,,,,,,,,,,,,,,,,,,,,,,,,,,,,,,307.1953107000445,307.1953107000445,307.1953107000445,307.1953107000445,307.1953107000445,0.012123499996960163,307.1953107000445,True,-0.29814814814814816,-0.39537037037037037,1,0,0,ansOne,,,,,,,,,,,,,,,,,002,2022-11-02_00h22.36.021,musicalMathTest,2022.2.0,60.05151218790269,
music\active\instrumentals\Someone Like You (90) (Instrumental) by Poison Beaches.wav,someone like you,active,instrumental,1,90,A,multiply,19,10,190,195,192,196,0,2,2,6,0,26,26,108,,,,,,,,,,,,,,,,,,,,,,,,,,,,,,,309.8115746000549,309.8115746000549,309.8115746000549,309.8115746000549,309.8115746000549,0.012185200001113117,309.8115746000549,True,-0.30092592592592593,-0.3990740740740741,1,0,0,ansOne,,,,,,,,,,,,,,,,,002,2022-11-02_00h22.36.021,musicalMathTest,2022.2.0,60.05151218790269,
music\active\instrumentals\Someone Like You (90) (Instrumental) by Poison Beaches.wav,someone like you,active,instrumental,1,90,A,multiply,6,10,60,61,68,70,0,2,2,6,0,27,27,75,,,,,,,,,,,,,,,,,,,,,,,,,,,,,,,311.62787170003867,311.62787170003867,311.62787170003867,311.62787170003867,311.62787170003867,0.015625600004568696,311.62787170003867,True,-0.3148148148148148,-0.4027777777777778,1,0,0,ansOne,,,,,,,,,,,,,,,,,002,2022-11-02_00h22.36.021,musicalMathTest,2022.2.0,60.05151218790269,
music\active\instrumentals\Someone Like You (90) (Instrumental) by Poison Beaches.wav,someone like you,active,instrumental,1,90,A,subtract,54,13,41,49,42,45,0,2,2,6,0,28,28,50,,,,,,,,,,,,,,,,,,,,,,,,,,,,,,,313.4985498000169,313.4985498000169,313.4985498000169,313.4985498000169,313.4985498000169,0.013682199991308153,313.4985498000169,False,0.11296296296296296,-0.39166666666666666,1,0,0,ansThree,,,,,,,,,,,,,,,,,002,2022-11-02_00h22.36.021,musicalMathTest,2022.2.0,60.05151218790269,
music\active\instrumentals\Someone Like You (90) (Instrumental) by Poison Beaches.wav,someone like you,active,instrumental,1,90,A,subtract,57,54,3,5,7,5,0,2,2,6,0,29,29,40,,,,,,,,,,,,,,,,,,,,,,,,,,,,,,,316.0441483000177,316.0441483000177,316.0441483000177,316.0441483000177,316.0441483000177,0.014644100039731711,316.0441483000177,True,-0.29074074074074074,-0.4074074074074074,1,0,0,ansOne,,,,,,,,,,,,,,,,,002,2022-11-02_00h22.36.021,musicalMathTest,2022.2.0,60.05151218790269,
music\active\instrumentals\Someone Like You (90) (Instrumental) by Poison Beaches.wav,someone like you,active,instrumental,1,90,A,add,53,21,74,77,75,77,0,2,2,6,0,30,30,20,,,,,,,,,,,,,,,,,,,,,,,,,,,,,,,320.6270007000421,320.6270007000421,320.6270007000421,320.6270007000421,320.6270007000421,0.01601189997745678,320.6270007000421,True,-0.30185185185185187,-0.4083333333333333,1,0,0,ansOne,,,,,,,,,,,,,,,,,002,2022-11-02_00h22.36.021,musicalMathTest,2022.2.0,60.05151218790269,
music\active\instrumentals\Someone Like You (90) (Instrumental) by Poison Beaches.wav,someone like you,active,instrumental,1,90,A,multiply,6,2,12,14,18,22,0,2,2,6,0,31,31,115,,,,,,,,,,,,,,,,,,,,,,,,,,,,,,,326.5592636000365,326.5592636000365,326.5592636000365,326.5592636000365,326.5592636000365,0.011525100038852543,326.5592636000365,True,-0.08981481481481482,-0.4009259259259259,1,0,0,ansTwo,,,,,,,,,,,,,,,,,002,2022-11-02_00h22.36.021,musicalMathTest,2022.2.0,60.05151218790269,
music\active\instrumentals\Believe It (90) (Instrumental) by Ty Magenta.wav,believe it,active,instrumental,1,90,A,add,54,21,75,82,78,77,0,3,3,0,0,0,0,28,,,,,,,,,,,,,,,,,,,,,,,,333.3917373000295,0.011179699969943613,0.05,-0.43425925925925923,1,0,0,334.4415344000445,334.4415344000445,334.4415344000445,334.4415344000445,334.4415344000445,0.023541899980045855,334.4415344000445,True,-0.10833333333333334,-0.38981481481481484,1,0,0,ansTwo,328.3758295000298,333.3917373000295,,,,,,,,,,,,,,,002,2022-11-02_00h22.36.021,musicalMathTest,2022.2.0,60.05151218790269,
music\active\instrumentals\Believe It (90) (Instrumental) by Ty Magenta.wav,believe it,active,instrumental,1,90,A,subtract,44,44,0,5,3,1,0,3,3,0,0,1,1,36,,,,,,,,,,,,,,,,,,,,,,,,,,,,,,,336.9078067000373,336.9078067000373,336.9078067000373,336.9078067000373,336.9078067000373,0.010388199996668845,336.9078067000373,True,-0.3037037037037037,-0.4027777777777778,1,0,0,ansOne,,,,,,,,,,,,,,,,,002,2022-11-02_00h22.36.021,musicalMathTest,2022.2.0,60.05151218790269,
music\active\instrumentals\Believe It (90) (Instrumental) by Ty Magenta.wav,believe it,active,instrumental,1,90,A,multiply,19,2,38,43,41,46,0,3,3,0,0,2,2,116,,,,,,,,,,,,,,,,,,,,,,,,,,,,,,,338.79087110003456,338.79087110003456,338.79087110003456,338.79087110003456,338.79087110003456,0.012943999958224595,338.79087110003456,True,-0.10648148148148148,-0.39444444444444443,1,0,0,ansTwo,,,,,,,,,,,,,,,,,002,2022-11-02_00h22.36.021,musicalMathTest,2022.2.0,60.05151218790269,
music\active\instrumentals\Believe It (90) (Instrumental) by Ty Magenta.wav,believe it,active,instrumental,1,90,A,subtract,58,13,45,47,49,51,0,3,3,0,0,3,3,54,,,,,,,,,,,,,,,,,,,,,,,,,,,,,,,340.5434855000349,340.5434855000349,340.5434855000349,340.5434855000349,340.5434855000349,0.015257099992595613,340.5434855000349,True,0.09722222222222222,-0.4027777777777778,1,0,0,ansThree,,,,,,,,,,,,,,,,,002,2022-11-02_00h22.36.021,musicalMathTest,2022.2.0,60.05151218790269,
music\active\instrumentals\Believe It (90) (Instrumental) by Ty Magenta.wav,believe it,active,instrumental,1,90,A,add,63,58,121,128,124,123,0,3,3,0,0,4,4,7,,,,,,,,,,,,,,,,,,,,,,,,,,,,,,,343.2908151000156,343.2908151000156,343.2908151000156,343.2908151000156,343.2908151000156,0.015888100024312735,343.2908151000156,True,0.08981481481481482,-0.3907407407407407,1,0,0,ansThree,,,,,,,,,,,,,,,,,002,2022-11-02_00h22.36.021,musicalMathTest,2022.2.0,60.05151218790269,
music\active\instrumentals\Believe It (90) (Instrumental) by Ty Magenta.wav,believe it,active,instrumental,1,90,A,subtract,44,44,0,1,2,3,0,3,3,0,0,5,5,46,,,,,,,,,,,,,,,,,,,,,,,,,,,,,,,346.1396773000015,346.1396773000015,346.1396773000015,346.1396773000015,346.1396773000015,0.01578640000661835,346.1396773000015,True,0.10277777777777777,-0.4009259259259259,1,0,0,ansThree,,,,,,,,,,,,,,,,,002,2022-11-02_00h22.36.021,musicalMathTest,2022.2.0,60.05151218790269,
music\active\instrumentals\Believe It (90) (Instrumental) by Ty Magenta.wav,believe it,active,instrumental,1,90,A,multiply,10,11,110,115,116,115,0,3,3,0,0,6,6,81,,,,,,,,,,,,,,,,,,,,,,,,,,,,,,,347.87288300000364,347.87288300000364,347.87288300000364,347.87288300000364,347.87288300000364,0.014578600006643683,347.87288300000364,True,0.0962962962962963,-0.38981481481481484,1,0,0,ansThree,,,,,,,,,,,,,,,,,002,2022-11-02_00h22.36.021,musicalMathTest,2022.2.0,60.05151218790269,
music\active\instrumentals\Believe It (90) (Instrumental) by Ty Magenta.wav,believe it,active,instrumental,1,90,A,add,46,44,90,95,100,91,0,3,3,0,0,7,7,8,,,,,,,,,,,,,,,,,,,,,,,,,,,,,,,349.806343400036,349.806343400036,349.806343400036,349.806343400036,349.806343400036,0.014612699975259602,349.806343400036,False,0.09444444444444444,-0.4083333333333333,1,0,0,ansThree,,,,,,,,,,,,,,,,,002,2022-11-02_00h22.36.021,musicalMathTest,2022.2.0,60.05151218790269,
music\active\instrumentals\Believe It (90) (Instrumental) by Ty Magenta.wav,believe it,active,instrumental,1,90,A,add,53,26,79,80,87,80,0,3,3,0,0,8,8,30,,,,,,,,,,,,,,,,,,,,,,,,,,,,,,,351.90570270002354,351.90570270002354,351.90570270002354,351.90570270002354,351.90570270002354,0.013256400008685887,351.90570270002354,True,-0.3,-0.38425925925925924,1,0,0,ansOne,,,,,,,,,,,,,,,,,002,2022-11-02_00h22.36.021,musicalMathTest,2022.2.0,60.05151218790269,
music\active\instrumentals\Believe It (90) (Instrumental) by Ty Magenta.wav,believe it,active,instrumental,1,90,A,multiply,10,14,140,143,148,143,0,3,3,0,0,9,9,94,,,,,,,,,,,,,,,,,,,,,,,,,,,,,,,354.7725586000015,354.7725586000015,354.7725586000015,354.7725586000015,354.7725586000015,0.016009399958420545,354.7725586000015,True,-0.2962962962962963,-0.3972222222222222,1,0,0,ansOne,,,,,,,,,,,,,,,,,002,2022-11-02_00h22.36.021,musicalMathTest,2022.2.0,60.05151218790269,
music\active\instrumentals\Believe It (90) (Instrumental) by Ty Magenta.wav,believe it,active,instrumental,1,90,A,add,57,53,110,114,116,112,0,3,3,0,0,10,10,1,,,,,,,,,,,,,,,,,,,,,,,,,,,,,,,356.42193780001253,356.42193780001253,356.42193780001253,356.42193780001253,356.42193780001253,0.016207700013183057,356.42193780001253,True,-0.0962962962962963,-0.3962962962962963,1,0,0,ansTwo,,,,,,,,,,,,,,,,,002,2022-11-02_00h22.36.021,musicalMathTest,2022.2.0,60.05151218790269,
music\active\instrumentals\Believe It (90) (Instrumental) by Ty Magenta.wav,believe it,active,instrumental,1,90,A,subtract,58,11,47,50,49,37,0,3,3,0,0,11,11,60,,,,,,,,,,,,,,,,,,,,,,,,,,,,,,,358.50477160001174,358.50477160001174,358.50477160001174,358.50477160001174,358.50477160001174,0.013037700031418353,358.50477160001174,False,0.1111111111111111,-0.4,1,0,0,ansThree,,,,,,,,,,,,,,,,,002,2022-11-02_00h22.36.021,musicalMathTest,2022.2.0,60.05151218790269,
music\active\instrumentals\Believe It (90) (Instrumental) by Ty Magenta.wav,believe it,active,instrumental,1,90,A,subtract,60,58,2,7,9,4,0,3,3,0,0,12,12,31,,,,,,,,,,,,,,,,,,,,,,,,,,,,,,,362.03759310004534,362.03759310004534,362.03759310004534,362.03759310004534,362.03759310004534,0.013263000000733882,362.03759310004534,True,0.10555555555555556,-0.3972222222222222,1,0,0,ansThree,,,,,,,,,,,,,,,,,002,2022-11-02_00h22.36.021,musicalMathTest,2022.2.0,60.05151218790269,
music\active\instrumentals\Believe It (90) (Instrumental) by Ty Magenta.wav,believe it,active,instrumental,1,90,A,subtract,63,58,5,10,9,8,0,3,3,0,0,13,13,41,,,,,,,,,,,,,,,,,,,,,,,,,,,,,,,365.77132670005085,365.77132670005085,365.77132670005085,365.77132670005085,365.77132670005085,0.015710499952547252,365.77132670005085,True,-0.3055555555555556,-0.39537037037037037,1,0,0,ansOne,,,,,,,,,,,,,,,,,002,2022-11-02_00h22.36.021,musicalMathTest,2022.2.0,60.05151218790269,
music\active\instrumentals\Believe It (90) (Instrumental) by Ty Magenta.wav,believe it,active,instrumental,1,90,A,subtract,56,53,3,11,10,8,0,3,3,0,0,14,14,42,,,,,,,,,,,,,,,,,,,,,,,,,,,,,,,369.30308300000615,369.30308300000615,369.30308300000615,369.30308300000615,369.30308300000615,0.01489310001488775,369.30308300000615,True,0.10740740740740741,-0.3925925925925926,1,0,0,ansThree,,,,,,,,,,,,,,,,,002,2022-11-02_00h22.36.021,musicalMathTest,2022.2.0,60.05151218790269,
music\active\instrumentals\Believe It (90) (Instrumental) by Ty Magenta.wav,believe it,active,instrumental,1,90,A,multiply,10,11,110,120,111,116,0,3,3,0,0,15,15,105,,,,,,,,,,,,,,,,,,,,,,,,,,,,,,,371.654750500049,371.654750500049,371.654750500049,371.654750500049,371.654750500049,0.016152800002600998,371.654750500049,True,0.09907407407407408,-0.39351851851851855,1,0,0,ansThree,,,,,,,,,,,,,,,,,002,2022-11-02_00h22.36.021,musicalMathTest,2022.2.0,60.05151218790269,
music\active\instrumentals\Believe It (90) (Instrumental) by Ty Magenta.wav,believe it,active,instrumental,1,90,A,add,49,44,93,101,97,103,0,3,3,0,0,16,16,2,,,,,,,,,,,,,,,,,,,,,,,,,,,,,,,373.5361281000078,373.5361281000078,373.5361281000078,373.5361281000078,373.5361281000078,0.014351699966937304,373.5361281000078,True,-0.2935185185185185,-0.4,1,0,0,ansOne,,,,,,,,,,,,,,,,,002,2022-11-02_00h22.36.021,musicalMathTest,2022.2.0,60.05151218790269,
music\active\instrumentals\Believe It (90) (Instrumental) by Ty Magenta.wav,believe it,active,instrumental,1,90,A,multiply,19,5,95,105,103,101,0,3,3,0,0,17,17,84,,,,,,,,,,,,,,,,,,,,,,,,,,,,,,,380.72175600001356,380.72175600001356,380.72175600001356,380.72175600001356,380.72175600001356,0.015084899961948395,380.72175600001356,True,-0.30092592592592593,-0.39537037037037037,1,0,0,ansOne,,,,,,,,,,,,,,,,,002,2022-11-02_00h22.36.021,musicalMathTest,2022.2.0,60.05151218790269,
music\active\instrumentals\Believe It (90) (Instrumental) by Ty Magenta.wav,believe it,active,instrumental,1,90,A,multiply,6,10,60,61,62,66,0,3,3,0,0,18,18,67,,,,,,,,,,,,,,,,,,,,,,,,,,,,,,,386.6382558000041,386.6382558000041,386.6382558000041,386.6382558000041,386.6382558000041,0.01771679997909814,386.6382558000041,True,0.11296296296296296,-0.39444444444444443,1,0,0,ansThree,,,,,,,,,,,,,,,,,002,2022-11-02_00h22.36.021,musicalMathTest,2022.2.0,60.05151218790269,
music\active\instrumentals\Believe It (90) (Instrumental) by Ty Magenta.wav,believe it,active,instrumental,1,90,A,add,62,58,120,122,124,127,0,3,3,0,0,19,19,13,,,,,,,,,,,,,,,,,,,,,,,,,,,,,,,388.40063960000407,388.40063960000407,388.40063960000407,388.40063960000407,388.40063960000407,0.019244000024627894,388.40063960000407,True,-0.2953703703703704,-0.39537037037037037,1,0,0,ansOne,,,,,,,,,,,,,,,,,002,2022-11-02_00h22.36.021,musicalMathTest,2022.2.0,60.05151218790269,
music\active\instrumentals\Believe It (90) (Instrumental) by Ty Magenta.wav,believe it,active,instrumental,1,90,A,multiply,14,10,140,144,148,141,0,3,3,0,0,20,20,90,,,,,,,,,,,,,,,,,,,,,,,,,,,,,,,395.3662242999999,395.3662242999999,395.3662242999999,395.3662242999999,395.3662242999999,0.015425899997353554,395.3662242999999,True,-0.2972222222222222,-0.40555555555555556,1,0,0,ansOne,,,,,,,,,,,,,,,,,002,2022-11-02_00h22.36.021,musicalMathTest,2022.2.0,60.05151218790269,
music\active\instrumentals\Believe It (90) (Instrumental) by Ty Magenta.wav,believe it,active,instrumental,1,90,A,multiply,5,19,95,102,96,100,0,3,3,0,0,21,21,112,,,,,,,,,,,,,,,,,,,,,,,,,,,,,,,397.14934990002075,397.14934990002075,397.14934990002075,397.14934990002075,397.14934990002075,0.01217140001244843,397.14934990002075,True,-0.30092592592592593,-0.4083333333333333,1,0,0,ansOne,,,,,,,,,,,,,,,,,002,2022-11-02_00h22.36.021,musicalMathTest,2022.2.0,60.05151218790269,
music\active\instrumentals\Believe It (90) (Instrumental) by Ty Magenta.wav,believe it,active,instrumental,1,90,A,multiply,10,19,190,191,192,193,0,3,3,0,0,22,22,96,,,,,,,,,,,,,,,,,,,,,,,,,,,,,,,399.8001940000104,399.8001940000104,399.8001940000104,399.8001940000104,399.8001940000104,0.016165299981366843,399.8001940000104,True,-0.09444444444444444,-0.40370370370370373,1,0,0,ansTwo,,,,,,,,,,,,,,,,,002,2022-11-02_00h22.36.021,musicalMathTest,2022.2.0,60.05151218790269,
music\active\instrumentals\Believe It (90) (Instrumental) by Ty Magenta.wav,believe it,active,instrumental,1,90,A,add,44,44,88,98,92,95,0,3,3,0,0,23,23,15,,,,,,,,,,,,,,,,,,,,,,,,,,,,,,,401.36559420003323,401.36559420003323,401.36559420003323,401.36559420003323,401.36559420003323,0.019445499987341464,401.36559420003323,True,-0.09814814814814815,-0.40370370370370373,1,0,0,ansTwo,,,,,,,,,,,,,,,,,002,2022-11-02_00h22.36.021,musicalMathTest,2022.2.0,60.05151218790269,
music\active\instrumentals\Believe It (90) (Instrumental) by Ty Magenta.wav,believe it,active,instrumental,1,90,A,multiply,10,11,110,114,116,120,0,3,3,0,0,24,24,65,,,,,,,,,,,,,,,,,,,,,,,,,,,,,,,403.1818398000323,403.1818398000323,403.1818398000323,403.1818398000323,403.1818398000323,0.012976699974387884,403.1818398000323,True,-0.30833333333333335,-0.4,1,0,0,ansOne,,,,,,,,,,,,,,,,,002,2022-11-02_00h22.36.021,musicalMathTest,2022.2.0,60.05151218790269,
music\active\instrumentals\Believe It (90) (Instrumental) by Ty Magenta.wav,believe it,active,instrumental,1,90,A,subtract,62,58,4,5,9,6,0,3,3,0,0,25,25,44,,,,,,,,,,,,,,,,,,,,,,,,,,,,,,,404.7316225000541,404.7316225000541,404.7316225000541,404.7316225000541,404.7316225000541,0.013122200034558773,404.7316225000541,True,0.10185185185185185,-0.39537037037037037,1,0,0,ansThree,,,,,,,,,,,,,,,,,002,2022-11-02_00h22.36.021,musicalMathTest,2022.2.0,60.05151218790269,
music\active\instrumentals\Believe It (90) (Instrumental) by Ty Magenta.wav,believe it,active,instrumental,1,90,A,add,53,21,74,77,75,77,0,3,3,0,0,26,26,20,,,,,,,,,,,,,,,,,,,,,,,,,,,,,,,409.69797990005463,409.69797990005463,409.69797990005463,409.69797990005463,409.69797990005463,0.012733899988234043,409.69797990005463,True,-0.08703703703703704,-0.4009259259259259,1,0,0,ansTwo,,,,,,,,,,,,,,,,,002,2022-11-02_00h22.36.021,musicalMathTest,2022.2.0,60.05151218790269,
music\active\instrumentals\Believe It (90) (Instrumental) by Ty Magenta.wav,believe it,active,instrumental,1,90,A,add,44,44,88,91,93,95,0,3,3,0,0,27,27,5,,,,,,,,,,,,,,,,,,,,,,,,,,,,,,,411.85054170002695,411.85054170002695,411.85054170002695,411.85054170002695,411.85054170002695,0.015358100004959852,411.85054170002695,True,-0.3037037037037037,-0.4,1,0,0,ansOne,,,,,,,,,,,,,,,,,002,2022-11-02_00h22.36.021,musicalMathTest,2022.2.0,60.05151218790269,
music\active\instrumentals\Believe It (90) (Instrumental) by Ty Magenta.wav,believe it,active,instrumental,1,90,A,add,44,21,65,68,75,72,0,3,3,0,0,28,28,24,,,,,,,,,,,,,,,,,,,,,,,,,,,,,,,414.7135281000519,414.7135281000519,414.7135281000519,414.7135281000519,414.7135281000519,0.015762399998493493,414.7135281000519,True,0.09166666666666666,-0.3972222222222222,1,0,0,ansThree,,,,,,,,,,,,,,,,,002,2022-11-02_00h22.36.021,musicalMathTest,2022.2.0,60.05151218790269,
music\active\instrumentals\Believe It (90) (Instrumental) by Ty Magenta.wav,believe it,active,instrumental,1,90,A,multiply,2,6,12,20,22,15,0,3,3,0,0,29,29,87,,,,,,,,,,,,,,,,,,,,,,,,,,,,,,,419.2967945000273,419.2967945000273,419.2967945000273,419.2967945000273,419.2967945000273,0.015041100035887212,419.2967945000273,True,-0.29444444444444445,-0.3888888888888889,1,0,0,ansOne,,,,,,,,,,,,,,,,,002,2022-11-02_00h22.36.021,musicalMathTest,2022.2.0,60.05151218790269,
music\active\instrumentals\Believe It (90) (Instrumental) by Ty Magenta.wav,believe it,active,instrumental,1,90,A,add,60,58,118,122,119,123,0,3,3,0,0,30,30,0,,,,,,,,,,,,,,,,,,,,,,,,,,,,,,,421.35009459999856,421.35009459999856,421.35009459999856,421.35009459999856,421.35009459999856,0.017992299981415272,421.35009459999856,True,0.08425925925925926,-0.38981481481481484,1,0,0,ansThree,,,,,,,,,,,,,,,,,002,2022-11-02_00h22.36.021,musicalMathTest,2022.2.0,60.05151218790269,
music\silence.wav,silent,silent,silent,1,90,A,subtract,44,44,0,5,3,1,0,4,4,9,0,0,0,36,,,,,,,,,,,,,,,,,,,,,,,,431.0280733000254,0.011723099974915385,0.04814814814814815,-0.36666666666666664,1,0,0,432.544329700002,432.544329700002,432.544329700002,432.544329700002,432.544329700002,0.020492399984505028,432.544329700002,True,-0.10555555555555556,-0.3861111111111111,1,0,0,ansTwo,426.01203630003147,431.0280733000254,,,,,,,,,,,,,,,002,2022-11-02_00h22.36.021,musicalMathTest,2022.2.0,60.05151218790269,
music\silence.wav,silent,silent,silent,1,90,A,subtract,49,44,5,6,13,11,0,4,4,9,0,1,1,33,,,,,,,,,,,,,,,,,,,,,,,,,,,,,,,438.92668510001386,438.92668510001386,438.92668510001386,438.92668510001386,438.92668510001386,0.012476099946070462,438.92668510001386,True,-0.0962962962962963,-0.3861111111111111,1,0,0,ansTwo,,,,,,,,,,,,,,,,,002,2022-11-02_00h22.36.021,musicalMathTest,2022.2.0,60.05151218790269,
music\silence.wav,silent,silent,silent,1,90,A,multiply,5,11,55,56,63,57,0,4,4,9,0,2,2,73,,,,,,,,,,,,,,,,,,,,,,,,,,,,,,,442.3929918000358,442.3929918000358,442.3929918000358,442.3929918000358,442.3929918000358,0.013618100027088076,442.3929918000358,True,-0.30092592592592593,-0.3888888888888889,1,0,0,ansOne,,,,,,,,,,,,,,,,,002,2022-11-02_00h22.36.021,musicalMathTest,2022.2.0,60.05151218790269,
music\silence.wav,silent,silent,silent,1,90,A,multiply,14,2,28,34,38,42,0,4,4,9,0,3,3,114,,,,,,,,,,,,,,,,,,,,,,,,,,,,,,,443.9437496000319,443.9437496000319,443.9437496000319,443.9437496000319,443.9437496000319,0.015635899966582656,443.9437496000319,True,0.1,-0.38425925925925924,1,0,0,ansThree,,,,,,,,,,,,,,,,,002,2022-11-02_00h22.36.021,musicalMathTest,2022.2.0,60.05151218790269,
music\silence.wav,silent,silent,silent,1,90,A,multiply,6,10,60,61,68,70,0,4,4,9,0,4,4,75,,,,,,,,,,,,,,,,,,,,,,,,,,,,,,,447.4767030000221,447.4767030000221,447.4767030000221,447.4767030000221,447.4767030000221,0.013539300009142607,447.4767030000221,True,-0.10185185185185185,-0.39166666666666666,1,0,0,ansTwo,,,,,,,,,,,,,,,,,002,2022-11-02_00h22.36.021,musicalMathTest,2022.2.0,60.05151218790269,
music\silence.wav,silent,silent,silent,1,90,A,subtract,54,21,33,35,37,40,0,4,4,9,0,5,5,59,,,,,,,,,,,,,,,,,,,,,,,,,,,,,,,449.2590402000351,449.2590402000351,449.2590402000351,449.2590402000351,449.2590402000351,0.01586790004512295,449.2590402000351,True,-0.10555555555555556,-0.4009259259259259,1,0,0,ansTwo,,,,,,,,,,,,,,,,,002,2022-11-02_00h22.36.021,musicalMathTest,2022.2.0,60.05151218790269,
music\silence.wav,silent,silent,silent,1,90,A,multiply,10,6,60,65,67,68,0,4,4,9,0,6,6,63,,,,,,,,,,,,,,,,,,,,,,,,,,,,,,,454.35775270004524,454.35775270004524,454.35775270004524,454.35775270004524,454.35775270004524,0.01577779999934137,454.35775270004524,True,-0.3074074074074074,-0.3888888888888889,1,0,0,ansOne,,,,,,,,,,,,,,,,,002,2022-11-02_00h22.36.021,musicalMathTest,2022.2.0,60.05151218790269,
music\silence.wav,silent,silent,silent,1,90,A,add,53,13,66,72,70,74,0,4,4,9,0,7,7,27,,,,,,,,,,,,,,,,,,,,,,,,,,,,,,,456.05791370000225,456.05791370000225,456.05791370000225,456.05791370000225,456.05791370000225,0.02040320000378415,456.05791370000225,True,-0.1037037037037037,-0.39814814814814814,1,0,0,ansTwo,,,,,,,,,,,,,,,,,002,2022-11-02_00h22.36.021,musicalMathTest,2022.2.0,60.05151218790269,
music\silence.wav,silent,silent,silent,1,90,A,multiply,19,5,95,101,100,97,0,4,4,9,0,8,8,100,,,,,,,,,,,,,,,,,,,,,,,,,,,,,,,457.9074546000338,457.9074546000338,457.9074546000338,457.9074546000338,457.9074546000338,0.011035299976356328,457.9074546000338,True,-0.30925925925925923,-0.40370370370370373,1,0,0,ansOne,,,,,,,,,,,,,,,,,002,2022-11-02_00h22.36.021,musicalMathTest,2022.2.0,60.05151218790269,
music\silence.wav,silent,silent,silent,1,90,A,add,57,54,111,115,118,112,0,4,4,9,0,9,9,9,,,,,,,,,,,,,,,,,,,,,,,,,,,,,,,459.95723340002587,459.95723340002587,459.95723340002587,459.95723340002587,459.95723340002587,0.008247600053437054,459.95723340002587,True,0.11388888888888889,-0.39537037037037037,1,0,0,ansThree,,,,,,,,,,,,,,,,,002,2022-11-02_00h22.36.021,musicalMathTest,2022.2.0,60.05151218790269,
music\silence.wav,silent,silent,silent,1,90,A,subtract,60,58,2,7,9,4,0,4,4,9,0,10,10,31,,,,,,,,,,,,,,,,,,,,,,,,,,,,,,,462.4234869000502,462.4234869000502,462.4234869000502,462.4234869000502,462.4234869000502,0.012403099972289056,462.4234869000502,True,-0.10555555555555556,-0.3925925925925926,1,0,0,ansTwo,,,,,,,,,,,,,,,,,002,2022-11-02_00h22.36.021,musicalMathTest,2022.2.0,60.05151218790269,
music\silence.wav,silent,silent,silent,1,90,A,add,54,26,80,81,83,87,0,4,4,9,0,11,11,22,,,,,,,,,,,,,,,,,,,,,,,,,,,,,,,464.55649220000487,464.55649220000487,464.55649220000487,464.55649220000487,464.55649220000487,0.013694599969312549,464.55649220000487,True,-0.09074074074074075,-0.4064814814814815,1,0,0,ansTwo,,,,,,,,,,,,,,,,,002,2022-11-02_00h22.36.021,musicalMathTest,2022.2.0,60.05151218790269,
music\silence.wav,silent,silent,silent,1,90,A,multiply,2,19,38,41,44,46,0,4,4,9,0,12,12,88,,,,,,,,,,,,,,,,,,,,,,,,,,,,,,,466.90623670001514,466.90623670001514,466.90623670001514,466.90623670001514,466.90623670001514,0.010899099987000227,466.90623670001514,True,-0.09722222222222222,-0.40185185185185185,1,0,0,ansTwo,,,,,,,,,,,,,,,,,002,2022-11-02_00h22.36.021,musicalMathTest,2022.2.0,60.05151218790269,
music\silence.wav,silent,silent,silent,1,90,A,multiply,19,2,38,43,41,46,0,4,4,9,0,13,13,116,,,,,,,,,,,,,,,,,,,,,,,,,,,,,,,469.1558562000282,469.1558562000282,469.1558562000282,469.1558562000282,469.1558562000282,0.015148300037253648,469.1558562000282,True,0.11203703703703703,-0.4074074074074074,1,0,0,ansThree,,,,,,,,,,,,,,,,,002,2022-11-02_00h22.36.021,musicalMathTest,2022.2.0,60.05151218790269,
music\silence.wav,silent,silent,silent,1,90,A,multiply,14,10,140,144,146,143,0,4,4,9,0,14,14,66,,,,,,,,,,,,,,,,,,,,,,,,,,,,,,,473.65606180002214,473.65606180002214,473.65606180002214,473.65606180002214,473.65606180002214,0.0156487999483943,473.65606180002214,True,-0.2916666666666667,-0.4,1,0,0,ansOne,,,,,,,,,,,,,,,,,002,2022-11-02_00h22.36.021,musicalMathTest,2022.2.0,60.05151218790269,
music\silence.wav,silent,silent,silent,1,90,A,subtract,53,26,27,31,29,34,0,4,4,9,0,15,15,61,,,,,,,,,,,,,,,,,,,,,,,,,,,,,,,475.5548145000357,475.5548145000357,475.5548145000357,475.5548145000357,475.5548145000357,0.014876300003379583,475.5548145000357,True,0.1037037037037037,-0.4064814814814815,1,0,0,ansThree,,,,,,,,,,,,,,,,,002,2022-11-02_00h22.36.021,musicalMathTest,2022.2.0,60.05151218790269,
music\silence.wav,silent,silent,silent,1,90,A,add,58,21,79,85,82,83,0,4,4,9,0,16,16,16,,,,,,,,,,,,,,,,,,,,,,,,,,,,,,,480.6873622999992,480.6873622999992,480.6873622999992,480.6873622999992,480.6873622999992,0.016343199997209013,480.6873622999992,True,-0.09722222222222222,-0.39814814814814814,1,0,0,ansTwo,,,,,,,,,,,,,,,,,002,2022-11-02_00h22.36.021,musicalMathTest,2022.2.0,60.05151218790269,
music\silence.wav,silent,silent,silent,1,90,A,subtract,57,53,4,9,10,9,0,4,4,9,0,17,17,32,,,,,,,,,,,,,,,,,,,,,,,,,,,,,,,484.8070160000352,484.8070160000352,484.8070160000352,484.8070160000352,484.8070160000352,0.015830199990887195,484.8070160000352,True,-0.10092592592592593,-0.4,1,0,0,ansTwo,,,,,,,,,,,,,,,,,002,2022-11-02_00h22.36.021,musicalMathTest,2022.2.0,60.05151218790269,
music\silence.wav,silent,silent,silent,1,90,A,subtract,46,44,2,4,7,4,0,4,4,9,0,18,18,39,,,,,,,,,,,,,,,,,,,,,,,,,,,,,,,486.87138390005566,486.87138390005566,486.87138390005566,486.87138390005566,486.87138390005566,0.017549000040162355,486.87138390005566,False,-0.09814814814814815,-0.3972222222222222,1,0,0,ansTwo,,,,,,,,,,,,,,,,,002,2022-11-02_00h22.36.021,musicalMathTest,2022.2.0,60.05151218790269,
music\silence.wav,silent,silent,silent,1,90,A,multiply,5,6,30,36,38,42,0,4,4,9,0,19,19,71,,,,,,,,,,,,,,,,,,,,,,,,,,,,,,,489.7031450000359,489.7031450000359,489.7031450000359,489.7031450000359,489.7031450000359,0.01914520002901554,489.7031450000359,True,-0.30277777777777776,-0.39814814814814814,1,0,0,ansOne,,,,,,,,,,,,,,,,,002,2022-11-02_00h22.36.021,musicalMathTest,2022.2.0,60.05151218790269,
music\silence.wav,silent,silent,silent,1,90,A,multiply,19,5,95,105,103,101,0,4,4,9,0,20,20,84,,,,,,,,,,,,,,,,,,,,,,,,,,,,,,,493.4548210000503,493.4548210000503,493.4548210000503,493.4548210000503,493.4548210000503,0.015357500000391155,493.4548210000503,True,-0.3111111111111111,-0.3962962962962963,1,0,0,ansOne,,,,,,,,,,,,,,,,,002,2022-11-02_00h22.36.021,musicalMathTest,2022.2.0,60.05151218790269,
music\silence.wav,silent,silent,silent,1,90,A,subtract,56,54,2,8,5,9,0,4,4,9,0,21,21,34,,,,,,,,,,,,,,,,,,,,,,,,,,,,,,,495.97062680003,495.97062680003,495.97062680003,495.97062680003,495.97062680003,0.013483300048392266,495.97062680003,True,-0.30185185185185187,-0.3925925925925926,1,0,0,ansOne,,,,,,,,,,,,,,,,,002,2022-11-02_00h22.36.021,musicalMathTest,2022.2.0,60.05151218790269,
music\silence.wav,silent,silent,silent,1,90,A,add,44,21,65,68,75,72,0,4,4,9,0,22,22,24,,,,,,,,,,,,,,,,,,,,,,,,,,,,,,,499.4349295000429,499.4349295000429,499.4349295000429,499.4349295000429,499.4349295000429,0.014459899975918233,499.4349295000429,True,-0.09814814814814815,-0.39537037037037037,1,0,0,ansTwo,,,,,,,,,,,,,,,,,002,2022-11-02_00h22.36.021,musicalMathTest,2022.2.0,60.05151218790269,
music\silence.wav,silent,silent,silent,1,90,A,subtract,54,13,41,49,42,45,0,4,4,9,0,23,23,50,,,,,,,,,,,,,,,,,,,,,,,,,,,,,,,503.4677907000296,503.4677907000296,503.4677907000296,503.4677907000296,503.4677907000296,0.012475499999709427,503.4677907000296,True,0.0962962962962963,-0.3990740740740741,1,0,0,ansThree,,,,,,,,,,,,,,,,,002,2022-11-02_00h22.36.021,musicalMathTest,2022.2.0,60.05151218790269,
music\silence.wav,silent,silent,silent,1,90,A,multiply,2,11,22,26,29,23,0,4,4,9,0,24,24,89,,,,,,,,,,,,,,,,,,,,,,,,,,,,,,,507.90156870003557,507.90156870003557,507.90156870003557,507.90156870003557,507.90156870003557,0.016177400015294552,507.90156870003557,True,-0.3074074074074074,-0.38796296296296295,1,0,0,ansOne,,,,,,,,,,,,,,,,,002,2022-11-02_00h22.36.021,musicalMathTest,2022.2.0,60.05151218790269,
music\silence.wav,silent,silent,silent,1,90,A,multiply,10,14,140,150,148,141,0,4,4,9,0,25,25,102,,,,,,,,,,,,,,,,,,,,,,,,,,,,,,,509.9500317000202,509.9500317000202,509.9500317000202,509.9500317000202,509.9500317000202,0.013879199977964163,509.9500317000202,True,0.10277777777777777,-0.39537037037037037,1,0,0,ansThree,,,,,,,,,,,,,,,,,002,2022-11-02_00h22.36.021,musicalMathTest,2022.2.0,60.05151218790269,
music\silence.wav,silent,silent,silent,1,90,A,multiply,11,10,110,120,118,116,0,4,4,9,0,26,26,69,,,,,,,,,,,,,,,,,,,,,,,,,,,,,,,511.69984910002677,511.69984910002677,511.69984910002677,511.69984910002677,511.69984910002677,0.013601900020148605,511.69984910002677,True,-0.09907407407407408,-0.3925925925925926,1,0,0,ansTwo,,,,,,,,,,,,,,,,,002,2022-11-02_00h22.36.021,musicalMathTest,2022.2.0,60.05151218790269,
music\silence.wav,silent,silent,silent,1,90,A,multiply,14,5,70,76,77,71,0,4,4,9,0,27,27,82,,,,,,,,,,,,,,,,,,,,,,,,,,,,,,,514.0162536000134,514.0162536000134,514.0162536000134,514.0162536000134,514.0162536000134,0.010530500032473356,514.0162536000134,True,0.10555555555555556,-0.4,1,0,0,ansThree,,,,,,,,,,,,,,,,,002,2022-11-02_00h22.36.021,musicalMathTest,2022.2.0,60.05151218790269,
music\silence.wav,silent,silent,silent,1,90,A,subtract,44,26,18,22,25,8,0,4,4,9,0,28,28,49,,,,,,,,,,,,,,,,,,,,,,,,,,,,,,,517.8159198000212,517.8159198000212,517.8159198000212,517.8159198000212,517.8159198000212,0.015925299958325922,517.8159198000212,True,-0.3074074074074074,-0.39537037037037037,1,0,0,ansOne,,,,,,,,,,,,,,,,,002,2022-11-02_00h22.36.021,musicalMathTest,2022.2.0,60.05151218790269,
music\active\vocals\Soda Pop (feat. Hot Air Balloon) (90) by Stony Pony.wav,soda pop,active,vocals,1,90,A,add,57,53,110,114,116,112,0,5,5,5,0,0,0,1,,,,,,,,,,,,,,,,,,,,,,,,528.9311916000443,0.010927399969659746,0.13148148148148148,-0.4046296296296296,1,0,0,542.2623248000164,542.2623248000164,542.2623248000164,542.2623248000164,542.2623248000164,0.03181759995641187,542.2623248000164,True,-0.29259259259259257,-0.41388888888888886,1,0,0,ansOne,523.9151585000218,528.9311916000443,,,,,,,,,,,,,,,002,2022-11-02_00h22.36.021,musicalMathTest,2022.2.0,60.05151218790269,
music\active\vocals\Soda Pop (feat. Hot Air Balloon) (90) by Stony Pony.wav,soda pop,active,vocals,1,90,A,subtract,62,58,4,5,9,6,0,5,5,5,0,1,1,44,,,,,,,,,,,,,,,,,,,,,,,,,,,,,,,546.1117457000073,546.1117457000073,546.1117457000073,546.1117457000073,546.1117457000073,0.01174159999936819,546.1117457000073,True,-0.2972222222222222,-0.39814814814814814,1,0,0,ansOne,,,,,,,,,,,,,,,,,002,2022-11-02_00h22.36.021,musicalMathTest,2022.2.0,60.05151218790269,
music\active\vocals\Soda Pop (feat. Hot Air Balloon) (90) by Stony Pony.wav,soda pop,active,vocals,1,90,A,add,63,58,121,127,129,133,0,5,5,5,0,2,2,10,,,,,,,,,,,,,,,,,,,,,,,,,,,,,,,551.660834600043,551.660834600043,551.660834600043,551.660834600043,551.660834600043,0.012712499999906868,551.660834600043,True,-0.09537037037037037,-0.3888888888888889,1,0,0,ansTwo,,,,,,,,,,,,,,,,,002,2022-11-02_00h22.36.021,musicalMathTest,2022.2.0,60.05151218790269,
music\active\vocals\Soda Pop (feat. Hot Air Balloon) (90) by Stony Pony.wav,soda pop,active,vocals,1,90,A,subtract,54,11,43,33,48,52,0,5,5,5,0,3,3,56,,,,,,,,,,,,,,,,,,,,,,,,,,,,,,,555.3770373000298,555.3770373000298,555.3770373000298,555.3770373000298,555.3770373000298,0.01067200000397861,555.3770373000298,True,-0.287962962962963,-0.39444444444444443,1,0,0,ansOne,,,,,,,,,,,,,,,,,002,2022-11-02_00h22.36.021,musicalMathTest,2022.2.0,60.05151218790269,
music\active\vocals\Soda Pop (feat. Hot Air Balloon) (90) by Stony Pony.wav,soda pop,active,vocals,1,90,A,subtract,44,44,0,5,3,1,0,5,5,5,0,4,4,36,,,,,,,,,,,,,,,,,,,,,,,,,,,,,,,559.9764638000051,559.9764638000051,559.9764638000051,559.9764638000051,559.9764638000051,0.01311230001738295,559.9764638000051,True,-0.30833333333333335,-0.40555555555555556,1,0,0,ansOne,,,,,,,,,,,,,,,,,002,2022-11-02_00h22.36.021,musicalMathTest,2022.2.0,60.05151218790269,
music\active\vocals\Soda Pop (feat. Hot Air Balloon) (90) by Stony Pony.wav,soda pop,active,vocals,1,90,A,add,49,44,93,101,97,103,0,5,5,5,0,5,5,2,,,,,,,,,,,,,,,,,,,,,,,,,,,,,,,561.709685800015,561.709685800015,561.709685800015,561.709685800015,561.709685800015,0.017154400004073977,561.709685800015,True,0.09444444444444444,-0.4046296296296296,1,0,0,ansThree,,,,,,,,,,,,,,,,,002,2022-11-02_00h22.36.021,musicalMathTest,2022.2.0,60.05151218790269,
music\active\vocals\Soda Pop (feat. Hot Air Balloon) (90) by Stony Pony.wav,soda pop,active,vocals,1,90,A,subtract,54,26,28,18,33,37,0,5,5,5,0,6,6,53,,,,,,,,,,,,,,,,,,,,,,,,,,,,,,,566.6754938000231,566.6754938000231,566.6754938000231,566.6754938000231,566.6754938000231,0.015539500047452748,566.6754938000231,True,-0.30092592592592593,-0.3925925925925926,1,0,0,ansOne,,,,,,,,,,,,,,,,,002,2022-11-02_00h22.36.021,musicalMathTest,2022.2.0,60.05151218790269,
music\active\vocals\Soda Pop (feat. Hot Air Balloon) (90) by Stony Pony.wav,soda pop,active,vocals,1,90,A,multiply,11,10,110,120,117,113,0,5,5,5,0,7,7,109,,,,,,,,,,,,,,,,,,,,,,,,,,,,,,,573.7245488000335,573.7245488000335,573.7245488000335,573.7245488000335,573.7245488000335,0.011469699966255575,573.7245488000335,True,0.10277777777777777,-0.39537037037037037,1,0,0,ansThree,,,,,,,,,,,,,,,,,002,2022-11-02_00h22.36.021,musicalMathTest,2022.2.0,60.05151218790269,
music\active\vocals\Soda Pop (feat. Hot Air Balloon) (90) by Stony Pony.wav,soda pop,active,vocals,1,90,A,multiply,10,11,110,115,116,115,0,5,5,5,0,8,8,81,,,,,,,,,,,,,,,,,,,,,,,,,,,,,,,575.5243762000464,575.5243762000464,575.5243762000464,575.5243762000464,575.5243762000464,0.010390200011897832,575.5243762000464,True,0.09814814814814815,-0.3925925925925926,1,0,0,ansThree,,,,,,,,,,,,,,,,,002,2022-11-02_00h22.36.021,musicalMathTest,2022.2.0,60.05151218790269,
music\active\vocals\Soda Pop (feat. Hot Air Balloon) (90) by Stony Pony.wav,soda pop,active,vocals,1,90,A,add,54,13,67,69,70,74,0,5,5,5,0,9,9,19,,,,,,,,,,,,,,,,,,,,,,,,,,,,,,,577.2416261000326,577.2416261000326,577.2416261000326,577.2416261000326,577.2416261000326,0.01581030001398176,577.2416261000326,True,-0.09166666666666666,-0.38981481481481484,1,0,0,ansTwo,,,,,,,,,,,,,,,,,002,2022-11-02_00h22.36.021,musicalMathTest,2022.2.0,60.05151218790269,
music\active\vocals\Soda Pop (feat. Hot Air Balloon) (90) by Stony Pony.wav,soda pop,active,vocals,1,90,A,add,57,54,111,115,118,112,0,5,5,5,0,10,10,9,,,,,,,,,,,,,,,,,,,,,,,,,,,,,,,579.7904535000562,579.7904535000562,579.7904535000562,579.7904535000562,579.7904535000562,0.011742400005459785,579.7904535000562,True,0.10648148148148148,-0.4027777777777778,1,0,0,ansThree,,,,,,,,,,,,,,,,,002,2022-11-02_00h22.36.021,musicalMathTest,2022.2.0,60.05151218790269,
music\active\vocals\Soda Pop (feat. Hot Air Balloon) (90) by Stony Pony.wav,soda pop,active,vocals,1,90,A,subtract,53,21,32,40,35,40,0,5,5,5,0,11,11,51,,,,,,,,,,,,,,,,,,,,,,,,,,,,,,,581.7568245000439,581.7568245000439,581.7568245000439,581.7568245000439,581.7568245000439,0.010576499975286424,581.7568245000439,False,-0.0962962962962963,-0.4064814814814815,1,0,0,ansTwo,,,,,,,,,,,,,,,,,002,2022-11-02_00h22.36.021,musicalMathTest,2022.2.0,60.05151218790269,
music\active\vocals\Soda Pop (feat. Hot Air Balloon) (90) by Stony Pony.wav,soda pop,active,vocals,1,90,A,multiply,2,11,22,26,29,23,0,5,5,5,0,12,12,89,,,,,,,,,,,,,,,,,,,,,,,,,,,,,,,589.0224069000105,589.0224069000105,589.0224069000105,589.0224069000105,589.0224069000105,0.011791100027039647,589.0224069000105,True,-0.10462962962962963,-0.39166666666666666,1,0,0,ansTwo,,,,,,,,,,,,,,,,,002,2022-11-02_00h22.36.021,musicalMathTest,2022.2.0,60.05151218790269,
music\active\vocals\Soda Pop (feat. Hot Air Balloon) (90) by Stony Pony.wav,soda pop,active,vocals,1,90,A,add,58,26,84,87,91,95,0,5,5,5,0,13,13,26,,,,,,,,,,,,,,,,,,,,,,,,,,,,,,,590.7888183000032,590.7888183000032,590.7888183000032,590.7888183000032,590.7888183000032,0.019378900004085153,590.7888183000032,True,0.09907407407407408,-0.3972222222222222,1,0,0,ansThree,,,,,,,,,,,,,,,,,002,2022-11-02_00h22.36.021,musicalMathTest,2022.2.0,60.05151218790269,
music\active\vocals\Soda Pop (feat. Hot Air Balloon) (90) by Stony Pony.wav,soda pop,active,vocals,1,90,A,multiply,19,10,190,200,202,194,0,5,5,5,0,14,14,76,,,,,,,,,,,,,,,,,,,,,,,,,,,,,,,594.1715021000127,594.1715021000127,594.1715021000127,594.1715021000127,594.1715021000127,0.015908900008071214,594.1715021000127,True,0.1,-0.3962962962962963,1,0,0,ansThree,,,,,,,,,,,,,,,,,002,2022-11-02_00h22.36.021,musicalMathTest,2022.2.0,60.05151218790269,
music\active\vocals\Soda Pop (feat. Hot Air Balloon) (90) by Stony Pony.wav,soda pop,active,vocals,1,90,A,multiply,14,2,28,34,38,42,0,5,5,5,0,15,15,114,,,,,,,,,,,,,,,,,,,,,,,,,,,,,,,595.871372100024,595.871372100024,595.871372100024,595.871372100024,595.871372100024,0.012462200014851987,595.871372100024,True,-0.1175925925925926,-0.4083333333333333,1,0,0,ansTwo,,,,,,,,,,,,,,,,,002,2022-11-02_00h22.36.021,musicalMathTest,2022.2.0,60.05151218790269,
music\active\vocals\Soda Pop (feat. Hot Air Balloon) (90) by Stony Pony.wav,soda pop,active,vocals,1,90,A,multiply,14,10,140,144,148,141,0,5,5,5,0,16,16,90,,,,,,,,,,,,,,,,,,,,,,,,,,,,,,,598.0710261000204,598.0710261000204,598.0710261000204,598.0710261000204,598.0710261000204,0.01323229999979958,598.0710261000204,True,0.10277777777777777,-0.40925925925925927,1,0,0,ansThree,,,,,,,,,,,,,,,,,002,2022-11-02_00h22.36.021,musicalMathTest,2022.2.0,60.05151218790269,
music\active\vocals\Soda Pop (feat. Hot Air Balloon) (90) by Stony Pony.wav,soda pop,active,vocals,1,90,A,subtract,58,21,37,38,44,42,0,5,5,5,0,17,17,47,,,,,,,,,,,,,,,,,,,,,,,,,,,,,,,599.7542519000126,599.7542519000126,599.7542519000126,599.7542519000126,599.7542519000126,0.013048199994955212,599.7542519000126,True,-0.2953703703703704,-0.3851851851851852,1,0,0,ansOne,,,,,,,,,,,,,,,,,002,2022-11-02_00h22.36.021,musicalMathTest,2022.2.0,60.05151218790269,
music\active\vocals\Soda Pop (feat. Hot Air Balloon) (90) by Stony Pony.wav,soda pop,active,vocals,1,90,A,multiply,11,10,110,114,115,111,0,5,5,5,0,18,18,93,,,,,,,,,,,,,,,,,,,,,,,,,,,,,,,603.3037141000386,603.3037141000386,603.3037141000386,603.3037141000386,603.3037141000386,0.013340800011064857,603.3037141000386,True,-0.3055555555555556,-0.39351851851851855,1,0,0,ansOne,,,,,,,,,,,,,,,,,002,2022-11-02_00h22.36.021,musicalMathTest,2022.2.0,60.05151218790269,
music\active\vocals\Soda Pop (feat. Hot Air Balloon) (90) by Stony Pony.wav,soda pop,active,vocals,1,90,A,add,62,58,120,122,124,127,0,5,5,5,0,19,19,13,,,,,,,,,,,,,,,,,,,,,,,,,,,,,,,605.9699422999984,605.9699422999984,605.9699422999984,605.9699422999984,605.9699422999984,0.012546400015708059,605.9699422999984,True,-0.10092592592592593,-0.3888888888888889,1,0,0,ansTwo,,,,,,,,,,,,,,,,,002,2022-11-02_00h22.36.021,musicalMathTest,2022.2.0,60.05151218790269,
music\active\vocals\Soda Pop (feat. Hot Air Balloon) (90) by Stony Pony.wav,soda pop,active,vocals,1,90,A,add,60,58,118,122,119,123,0,5,5,5,0,20,20,0,,,,,,,,,,,,,,,,,,,,,,,,,,,,,,,608.9050638000481,608.9050638000481,608.9050638000481,608.9050638000481,608.9050638000481,0.015917600016109645,608.9050638000481,True,0.10185185185185185,-0.3907407407407407,1,0,0,ansThree,,,,,,,,,,,,,,,,,002,2022-11-02_00h22.36.021,musicalMathTest,2022.2.0,60.05151218790269,
music\active\vocals\Soda Pop (feat. Hot Air Balloon) (90) by Stony Pony.wav,soda pop,active,vocals,1,90,A,multiply,6,10,60,67,62,66,0,5,5,5,0,21,21,107,,,,,,,,,,,,,,,,,,,,,,,,,,,,,,,611.786013200006,611.786013200006,611.786013200006,611.786013200006,611.786013200006,0.017655099974945188,611.786013200006,True,-0.3101851851851852,-0.39166666666666666,1,0,0,ansOne,,,,,,,,,,,,,,,,,002,2022-11-02_00h22.36.021,musicalMathTest,2022.2.0,60.05151218790269,
music\active\vocals\Soda Pop (feat. Hot Air Balloon) (90) by Stony Pony.wav,soda pop,active,vocals,1,90,A,add,44,21,65,68,75,72,0,5,5,5,0,22,22,24,,,,,,,,,,,,,,,,,,,,,,,,,,,,,,,613.7191236000508,613.7191236000508,613.7191236000508,613.7191236000508,613.7191236000508,0.018645600008312613,613.7191236000508,True,-0.09166666666666666,-0.40370370370370373,1,0,0,ansTwo,,,,,,,,,,,,,,,,,002,2022-11-02_00h22.36.021,musicalMathTest,2022.2.0,60.05151218790269,
music\active\vocals\Soda Pop (feat. Hot Air Balloon) (90) by Stony Pony.wav,soda pop,active,vocals,1,90,A,multiply,19,10,190,195,197,195,0,5,5,5,0,23,23,68,,,,,,,,,,,,,,,,,,,,,,,,,,,,,,,617.7016974000144,617.7016974000144,617.7016974000144,617.7016974000144,617.7016974000144,0.012511599983554333,617.7016974000144,True,-0.09907407407407408,-0.39814814814814814,1,0,0,ansTwo,,,,,,,,,,,,,,,,,002,2022-11-02_00h22.36.021,musicalMathTest,2022.2.0,60.05151218790269,
music\active\vocals\Soda Pop (feat. Hot Air Balloon) (90) by Stony Pony.wav,soda pop,active,vocals,1,90,A,subtract,53,13,40,45,46,48,0,5,5,5,0,24,24,58,,,,,,,,,,,,,,,,,,,,,,,,,,,,,,,619.1847730000154,619.1847730000154,619.1847730000154,619.1847730000154,619.1847730000154,0.012788099993485957,619.1847730000154,True,-0.0962962962962963,-0.4009259259259259,1,0,0,ansTwo,,,,,,,,,,,,,,,,,002,2022-11-02_00h22.36.021,musicalMathTest,2022.2.0,60.05151218790269,
music\active\vocals\Soda Pop (feat. Hot Air Balloon) (90) by Stony Pony.wav,soda pop,active,vocals,1,90,A,multiply,19,2,38,43,41,46,0,5,5,5,0,25,25,116,,,,,,,,,,,,,,,,,,,,,,,,,,,,,,,621.7844843000057,621.7844843000057,621.7844843000057,621.7844843000057,621.7844843000057,0.014809500018600374,621.7844843000057,True,-0.10833333333333334,-0.4,1,0,0,ansTwo,,,,,,,,,,,,,,,,,002,2022-11-02_00h22.36.021,musicalMathTest,2022.2.0,60.05151218790269,
music\active\vocals\Soda Pop (feat. Hot Air Balloon) (90) by Stony Pony.wav,soda pop,active,vocals,1,90,A,multiply,10,6,60,66,63,64,0,5,5,5,0,26,26,95,,,,,,,,,,,,,,,,,,,,,,,,,,,,,,,625.5673575000255,625.5673575000255,625.5673575000255,625.5673575000255,625.5673575000255,0.015114600013475865,625.5673575000255,True,-0.30092592592592593,-0.3990740740740741,1,0,0,ansOne,,,,,,,,,,,,,,,,,002,2022-11-02_00h22.36.021,musicalMathTest,2022.2.0,60.05151218790269,
music\active\vocals\Soda Pop (feat. Hot Air Balloon) (90) by Stony Pony.wav,soda pop,active,vocals,1,90,A,multiply,6,5,30,34,31,33,0,5,5,5,0,27,27,83,,,,,,,,,,,,,,,,,,,,,,,,,,,,,,,627.3502659000224,627.3502659000224,627.3502659000224,627.3502659000224,627.3502659000224,0.011955199996009469,627.3502659000224,True,0.10277777777777777,-0.39444444444444443,1,0,0,ansThree,,,,,,,,,,,,,,,,,002,2022-11-02_00h22.36.021,musicalMathTest,2022.2.0,60.05151218790269,
music\active\vocals\Soda Pop (feat. Hot Air Balloon) (90) by Stony Pony.wav,soda pop,active,vocals,1,90,A,subtract,44,26,18,22,25,8,0,5,5,5,0,28,28,49,,,,,,,,,,,,,,,,,,,,,,,,,,,,,,,629.3664851000067,629.3664851000067,629.3664851000067,629.3664851000067,629.3664851000067,0.014912899991031736,629.3664851000067,True,-0.30462962962962964,-0.3990740740740741,1,0,0,ansOne,,,,,,,,,,,,,,,,,002,2022-11-02_00h22.36.021,musicalMathTest,2022.2.0,60.05151218790269,
music\silence.wav,silent,silent,silent,1,90,A,subtract,53,11,42,49,45,46,0,6,6,4,0,0,0,48,,,,,,,,,,,,,,,,,,,,,,,,639.7820658000419,0.011347899970132858,-0.06666666666666667,-0.39444444444444443,1,0,0,652.7800386000308,652.7800386000308,652.7800386000308,652.7800386000308,652.7800386000308,0.020877000002656132,652.7800386000308,False,-0.2916666666666667,-0.4064814814814815,1,0,0,ansOne,634.7660314000095,639.7820658000419,,,,,,,,,,,,,,,002,2022-11-02_00h22.36.021,musicalMathTest,2022.2.0,60.05151218790269,
music\silence.wav,silent,silent,silent,1,90,A,subtract,58,11,47,50,49,37,0,6,6,4,0,1,1,60,,,,,,,,,,,,,,,,,,,,,,,,,,,,,,,662.8952626000391,662.8952626000391,662.8952626000391,662.8952626000391,662.8952626000391,0.012266100035049021,662.8952626000391,False,0.29074074074074074,-0.3972222222222222,1,0,0,ansFour,,,,,,,,,,,,,,,,,002,2022-11-02_00h22.36.021,musicalMathTest,2022.2.0,60.05151218790269,
music\silence.wav,silent,silent,silent,1,90,A,multiply,14,5,70,73,77,75,0,6,6,4,0,2,2,98,,,,,,,,,,,,,,,,,,,,,,,,,,,,,,,669.9973542000516,669.9973542000516,669.9973542000516,669.9973542000516,669.9973542000516,0.015370600041933358,669.9973542000516,True,-0.09814814814814815,-0.39537037037037037,1,0,0,ansTwo,,,,,,,,,,,,,,,,,002,2022-11-02_00h22.36.021,musicalMathTest,2022.2.0,60.05151218790269,
music\silence.wav,silent,silent,silent,1,90,A,subtract,44,44,0,1,2,3,0,6,6,4,0,3,3,46,,,,,,,,,,,,,,,,,,,,,,,,,,,,,,,672.6772402000497,672.6772402000497,672.6772402000497,672.6772402000497,672.6772402000497,0.012474899995140731,672.6772402000497,True,0.09351851851851851,-0.3990740740740741,1,0,0,ansThree,,,,,,,,,,,,,,,,,002,2022-11-02_00h22.36.021,musicalMathTest,2022.2.0,60.05151218790269,
music\silence.wav,silent,silent,silent,1,90,A,subtract,58,21,37,38,44,42,0,6,6,4,0,4,4,47,,,,,,,,,,,,,,,,,,,,,,,,,,,,,,,675.5768721000059,675.5768721000059,675.5768721000059,675.5768721000059,675.5768721000059,0.011155800020787865,675.5768721000059,True,-0.09166666666666666,-0.3962962962962963,1,0,0,ansTwo,,,,,,,,,,,,,,,,,002,2022-11-02_00h22.36.021,musicalMathTest,2022.2.0,60.05151218790269,
music\silence.wav,silent,silent,silent,1,90,A,multiply,10,6,60,66,63,64,0,6,6,4,0,5,5,95,,,,,,,,,,,,,,,,,,,,,,,,,,,,,,,679.5763277000515,679.5763277000515,679.5763277000515,679.5763277000515,679.5763277000515,0.013635600043926388,679.5763277000515,True,0.10462962962962963,-0.39351851851851855,1,0,0,ansThree,,,,,,,,,,,,,,,,,002,2022-11-02_00h22.36.021,musicalMathTest,2022.2.0,60.05151218790269,
music\silence.wav,silent,silent,silent,1,90,A,multiply,10,19,190,195,191,195,0,6,6,4,0,6,6,104,,,,,,,,,,,,,,,,,,,,,,,,,,,,,,,682.4091803000192,682.4091803000192,682.4091803000192,682.4091803000192,682.4091803000192,0.013494100014213473,682.4091803000192,True,-0.09259259259259259,-0.39351851851851855,1,0,0,ansTwo,,,,,,,,,,,,,,,,,002,2022-11-02_00h22.36.021,musicalMathTest,2022.2.0,60.05151218790269,
music\silence.wav,silent,silent,silent,1,90,A,add,56,54,110,116,118,122,0,6,6,4,0,7,7,3,,,,,,,,,,,,,,,,,,,,,,,,,,,,,,,684.2423205000232,684.2423205000232,684.2423205000232,684.2423205000232,684.2423205000232,0.011534899997059256,684.2423205000232,True,-0.1037037037037037,-0.39537037037037037,1,0,0,ansTwo,,,,,,,,,,,,,,,,,002,2022-11-02_00h22.36.021,musicalMathTest,2022.2.0,60.05151218790269,
music\silence.wav,silent,silent,silent,1,90,A,multiply,11,10,110,120,118,116,0,6,6,4,0,8,8,69,,,,,,,,,,,,,,,,,,,,,,,,,,,,,,,687.441863700049,687.441863700049,687.441863700049,687.441863700049,687.441863700049,0.013358700030948967,687.441863700049,True,-0.30648148148148147,-0.4027777777777778,1,0,0,ansOne,,,,,,,,,,,,,,,,,002,2022-11-02_00h22.36.021,musicalMathTest,2022.2.0,60.05151218790269,
music\silence.wav,silent,silent,silent,1,90,A,multiply,5,6,30,36,38,42,0,6,6,4,0,9,9,71,,,,,,,,,,,,,,,,,,,,,,,,,,,,,,,689.4271960000042,689.4271960000042,689.4271960000042,689.4271960000042,689.4271960000042,0.015624399995431304,689.4271960000042,True,-0.3074074074074074,-0.39351851851851855,1,0,0,ansOne,,,,,,,,,,,,,,,,,002,2022-11-02_00h22.36.021,musicalMathTest,2022.2.0,60.05151218790269,
music\silence.wav,silent,silent,silent,1,90,A,multiply,5,14,70,71,78,75,0,6,6,4,0,10,10,70,,,,,,,,,,,,,,,,,,,,,,,,,,,,,,,691.2579725000542,691.2579725000542,691.2579725000542,691.2579725000542,691.2579725000542,0.012625200033653527,691.2579725000542,True,-0.11018518518518519,-0.40370370370370373,1,0,0,ansTwo,,,,,,,,,,,,,,,,,002,2022-11-02_00h22.36.021,musicalMathTest,2022.2.0,60.05151218790269,
music\silence.wav,silent,silent,silent,1,90,A,subtract,44,11,33,39,23,37,0,6,6,4,0,11,11,52,,,,,,,,,,,,,,,,,,,,,,,,,,,,,,,694.9754182000179,694.9754182000179,694.9754182000179,694.9754182000179,694.9754182000179,0.013924900034908205,694.9754182000179,True,0.10925925925925926,-0.4009259259259259,1,0,0,ansThree,,,,,,,,,,,,,,,,,002,2022-11-02_00h22.36.021,musicalMathTest,2022.2.0,60.05151218790269,
music\silence.wav,silent,silent,silent,1,90,A,multiply,5,6,30,31,38,37,0,6,6,4,0,12,12,111,,,,,,,,,,,,,,,,,,,,,,,,,,,,,,,697.9403336000396,697.9403336000396,697.9403336000396,697.9403336000396,697.9403336000396,0.013386500009801239,697.9403336000396,True,0.1,-0.4,1,0,0,ansThree,,,,,,,,,,,,,,,,,002,2022-11-02_00h22.36.021,musicalMathTest,2022.2.0,60.05151218790269,
music\silence.wav,silent,silent,silent,1,90,A,subtract,54,11,43,33,48,52,0,6,6,4,0,13,13,56,,,,,,,,,,,,,,,,,,,,,,,,,,,,,,,699.6735447000246,699.6735447000246,699.6735447000246,699.6735447000246,699.6735447000246,0.01295800000661984,699.6735447000246,False,-0.3037037037037037,-0.4,1,0,0,ansOne,,,,,,,,,,,,,,,,,002,2022-11-02_00h22.36.021,musicalMathTest,2022.2.0,60.05151218790269,
music\silence.wav,silent,silent,silent,1,90,A,multiply,10,19,190,191,192,193,0,6,6,4,0,14,14,96,,,,,,,,,,,,,,,,,,,,,,,,,,,,,,,702.1564612000366,702.1564612000366,702.1564612000366,702.1564612000366,702.1564612000366,0.09235320001607761,702.1564612000366,True,-0.3,-0.3972222222222222,1,0,0,ansOne,,,,,,,,,,,,,,,,,002,2022-11-02_00h22.36.021,musicalMathTest,2022.2.0,60.05151218790269,
music\silence.wav,silent,silent,silent,1,90,A,multiply,2,11,22,26,29,23,0,6,6,4,0,15,15,89,,,,,,,,,,,,,,,,,,,,,,,,,,,,,,,704.8894230000442,704.8894230000442,704.8894230000442,704.8894230000442,704.8894230000442,0.011368800012860447,704.8894230000442,True,-0.30648148148148147,-0.39444444444444443,1,0,0,ansOne,,,,,,,,,,,,,,,,,002,2022-11-02_00h22.36.021,musicalMathTest,2022.2.0,60.05151218790269,
music\silence.wav,silent,silent,silent,1,90,A,add,44,44,88,98,92,95,0,6,6,4,0,16,16,15,,,,,,,,,,,,,,,,,,,,,,,,,,,,,,,706.572463700024,706.572463700024,706.572463700024,706.572463700024,706.572463700024,0.012656899983994663,706.572463700024,True,-0.10740740740740741,-0.39814814814814814,1,0,0,ansTwo,,,,,,,,,,,,,,,,,002,2022-11-02_00h22.36.021,musicalMathTest,2022.2.0,60.05151218790269,
music\silence.wav,silent,silent,silent,1,90,A,multiply,10,6,60,66,70,67,0,6,6,4,0,17,17,79,,,,,,,,,,,,,,,,,,,,,,,,,,,,,,,708.1243685000227,708.1243685000227,708.1243685000227,708.1243685000227,708.1243685000227,0.017364699975587428,708.1243685000227,True,-0.3111111111111111,-0.4,1,0,0,ansOne,,,,,,,,,,,,,,,,,002,2022-11-02_00h22.36.021,musicalMathTest,2022.2.0,60.05151218790269,
music\silence.wav,silent,silent,silent,1,90,A,multiply,10,14,140,150,148,141,0,6,6,4,0,18,18,102,,,,,,,,,,,,,,,,,,,,,,,,,,,,,,,710.3384714000276,710.3384714000276,710.3384714000276,710.3384714000276,710.3384714000276,0.014697799982968718,710.3384714000276,True,-0.29074074074074074,-0.38981481481481484,1,0,0,ansOne,,,,,,,,,,,,,,,,,002,2022-11-02_00h22.36.021,musicalMathTest,2022.2.0,60.05151218790269,
music\silence.wav,silent,silent,silent,1,90,A,add,58,26,84,87,91,95,0,6,6,4,0,19,19,26,,,,,,,,,,,,,,,,,,,,,,,,,,,,,,,712.1757882000529,712.1757882000529,712.1757882000529,712.1757882000529,712.1757882000529,0.013604199979454279,712.1757882000529,True,-0.11388888888888889,-0.39814814814814814,1,0,0,ansTwo,,,,,,,,,,,,,,,,,002,2022-11-02_00h22.36.021,musicalMathTest,2022.2.0,60.05151218790269,
music\silence.wav,silent,silent,silent,1,90,A,add,53,11,64,68,67,71,0,6,6,4,0,20,20,17,,,,,,,,,,,,,,,,,,,,,,,,,,,,,,,715.5378204000299,715.5378204000299,715.5378204000299,715.5378204000299,715.5378204000299,0.016086799965705723,715.5378204000299,True,-0.08518518518518518,-0.4027777777777778,1,0,0,ansTwo,,,,,,,,,,,,,,,,,002,2022-11-02_00h22.36.021,musicalMathTest,2022.2.0,60.05151218790269,
music\silence.wav,silent,silent,silent,1,90,A,add,58,53,111,118,117,113,0,6,6,4,0,21,21,4,,,,,,,,,,,,,,,,,,,,,,,,,,,,,,,717.9051566999988,717.9051566999988,717.9051566999988,717.9051566999988,717.9051566999988,0.015738599991891533,717.9051566999988,True,-0.30092592592592593,-0.4009259259259259,1,0,0,ansOne,,,,,,,,,,,,,,,,,002,2022-11-02_00h22.36.021,musicalMathTest,2022.2.0,60.05151218790269,
music\silence.wav,silent,silent,silent,1,90,A,multiply,19,2,38,43,41,46,0,6,6,4,0,22,22,116,,,,,,,,,,,,,,,,,,,,,,,,,,,,,,,720.7703729000059,720.7703729000059,720.7703729000059,720.7703729000059,720.7703729000059,0.015694100002292544,720.7703729000059,True,-0.31296296296296294,-0.39444444444444443,1,0,0,ansOne,,,,,,,,,,,,,,,,,002,2022-11-02_00h22.36.021,musicalMathTest,2022.2.0,60.05151218790269,
music\silence.wav,silent,silent,silent,1,90,A,add,49,44,93,101,97,103,0,6,6,4,0,23,23,2,,,,,,,,,,,,,,,,,,,,,,,,,,,,,,,722.9869273000513,722.9869273000513,722.9869273000513,722.9869273000513,722.9869273000513,0.011424500029534101,722.9869273000513,True,0.10648148148148148,-0.4027777777777778,1,0,0,ansThree,,,,,,,,,,,,,,,,,002,2022-11-02_00h22.36.021,musicalMathTest,2022.2.0,60.05151218790269,
music\silence.wav,silent,silent,silent,1,90,A,multiply,10,11,110,115,118,115,0,6,6,4,0,24,24,97,,,,,,,,,,,,,,,,,,,,,,,,,,,,,,,725.73703020002,725.73703020002,725.73703020002,725.73703020002,725.73703020002,0.016260100004728884,725.73703020002,True,-0.30092592592592593,-0.39537037037037037,1,0,0,ansOne,,,,,,,,,,,,,,,,,002,2022-11-02_00h22.36.021,musicalMathTest,2022.2.0,60.05151218790269,
music\silence.wav,silent,silent,silent,1,90,A,subtract,44,21,23,28,30,24,0,6,6,4,0,25,25,55,,,,,,,,,,,,,,,,,,,,,,,,,,,,,,,728.0361263000523,728.0361263000523,728.0361263000523,728.0361263000523,728.0361263000523,0.015379599994048476,728.0361263000523,True,-0.30277777777777776,-0.39351851851851855,1,0,0,ansOne,,,,,,,,,,,,,,,,,002,2022-11-02_00h22.36.021,musicalMathTest,2022.2.0,60.05151218790269,
music\silence.wav,silent,silent,silent,1,90,A,multiply,14,5,70,76,77,71,0,6,6,4,0,26,26,82,,,,,,,,,,,,,,,,,,,,,,,,,,,,,,,731.9189439000329,731.9189439000329,731.9189439000329,731.9189439000329,731.9189439000329,0.012451100046746433,731.9189439000329,True,-0.30092592592592593,-0.39814814814814814,1,0,0,ansOne,,,,,,,,,,,,,,,,,002,2022-11-02_00h22.36.021,musicalMathTest,2022.2.0,60.05151218790269,
music\silence.wav,silent,silent,silent,1,90,A,multiply,19,5,95,101,100,97,0,6,6,4,0,27,27,100,,,,,,,,,,,,,,,,,,,,,,,,,,,,,,,736.8355738000246,736.8355738000246,736.8355738000246,736.8355738000246,736.8355738000246,0.015386699989903718,736.8355738000246,True,-0.31203703703703706,-0.38796296296296295,1,0,0,ansOne,,,,,,,,,,,,,,,,,002,2022-11-02_00h22.36.021,musicalMathTest,2022.2.0,60.05151218790269,
music\silence.wav,silent,silent,silent,1,90,A,add,63,58,121,128,124,123,0,6,6,4,0,28,28,7,,,,,,,,,,,,,,,,,,,,,,,,,,,,,,,741.1842852000264,741.1842852000264,741.1842852000264,741.1842852000264,741.1842852000264,0.01389900001231581,741.1842852000264,True,-0.08796296296296297,-0.39351851851851855,1,0,0,ansTwo,,,,,,,,,,,,,,,,,002,2022-11-02_00h22.36.021,musicalMathTest,2022.2.0,60.05151218790269,
music\calm\vocals\You & Me featuring Ural Thomas (90) by Bridge City Revival.wav,you and me,calm,vocals,1,90,A,subtract,54,11,43,33,48,52,0,7,7,7,0,0,0,56,,,,,,,,,,,,,,,,,,,,,,,,748.6001233000425,0.024833700037561357,0.012962962962962963,-0.4166666666666667,1,0,0,752.2698806000408,752.2698806000408,752.2698806000408,752.2698806000408,752.2698806000408,0.027416399971116334,752.2698806000408,True,-0.28703703703703703,-0.3962962962962963,1,0,0,ansOne,743.5679066000157,,,,,,,,,,,,,,,,002,2022-11-02_00h22.36.021,musicalMathTest,2022.2.0,60.05151218790269,
music\calm\vocals\You & Me featuring Ural Thomas (90) by Bridge City Revival.wav,you and me,calm,vocals,1,90,A,multiply,10,14,140,150,148,141,0,7,7,7,0,1,1,102,,,,,,,,,,,,,,,,,,,,,,,,,,,,,,,761.4648309000186,761.4648309000186,761.4648309000186,761.4648309000186,761.4648309000186,0.011250299983657897,761.4648309000186,True,-0.29444444444444445,-0.38796296296296295,1,0,0,ansOne,,,,,,,,,,,,,,,,,002,2022-11-02_00h22.36.021,musicalMathTest,2022.2.0,60.05151218790269,
music\calm\vocals\You & Me featuring Ural Thomas (90) by Bridge City Revival.wav,you and me,calm,vocals,1,90,A,multiply,11,5,55,61,63,61,0,7,7,7,0,2,2,85,,,,,,,,,,,,,,,,,,,,,,,,,,,,,,,764.6834450000315,764.6834450000315,764.6834450000315,764.6834450000315,764.6834450000315,0.015388300002086908,764.6834450000315,True,0.09074074074074075,-0.39351851851851855,1,0,0,ansThree,,,,,,,,,,,,,,,,,002,2022-11-02_00h22.36.021,musicalMathTest,2022.2.0,60.05151218790269,
music\calm\vocals\You & Me featuring Ural Thomas (90) by Bridge City Revival.wav,you and me,calm,vocals,1,90,A,subtract,57,54,3,5,7,5,0,7,7,7,0,3,3,40,,,,,,,,,,,,,,,,,,,,,,,,,,,,,,,767.6639319000533,767.6639319000533,767.6639319000533,767.6639319000533,767.6639319000533,0.012357599975075573,767.6639319000533,True,-0.30462962962962964,-0.38981481481481484,1,0,0,ansOne,,,,,,,,,,,,,,,,,002,2022-11-02_00h22.36.021,musicalMathTest,2022.2.0,60.05151218790269,
music\calm\vocals\You & Me featuring Ural Thomas (90) by Bridge City Revival.wav,you and me,calm,vocals,1,90,A,multiply,10,6,60,65,67,68,0,7,7,7,0,4,4,63,,,,,,,,,,,,,,,,,,,,,,,,,,,,,,,769.8304788000532,769.8304788000532,769.8304788000532,769.8304788000532,769.8304788000532,0.01599560002796352,769.8304788000532,True,-0.09907407407407408,-0.39166666666666666,1,0,0,ansTwo,,,,,,,,,,,,,,,,,002,2022-11-02_00h22.36.021,musicalMathTest,2022.2.0,60.05151218790269,
music\calm\vocals\You & Me featuring Ural Thomas (90) by Bridge City Revival.wav,you and me,calm,vocals,1,90,A,add,54,21,75,82,78,77,0,7,7,7,0,5,5,28,,,,,,,,,,,,,,,,,,,,,,,,,,,,,,,771.3134448000346,771.3134448000346,771.3134448000346,771.3134448000346,771.3134448000346,0.012940899992827326,771.3134448000346,True,-0.30462962962962964,-0.3907407407407407,1,0,0,ansOne,,,,,,,,,,,,,,,,,002,2022-11-02_00h22.36.021,musicalMathTest,2022.2.0,60.05151218790269,
music\calm\vocals\You & Me featuring Ural Thomas (90) by Bridge City Revival.wav,you and me,calm,vocals,1,90,A,multiply,10,6,60,63,62,61,0,7,7,7,0,6,6,103,,,,,,,,,,,,,,,,,,,,,,,,,,,,,,,774.1464874000521,774.1464874000521,774.1464874000521,774.1464874000521,774.1464874000521,0.01590169995324686,774.1464874000521,True,0.10555555555555556,-0.39537037037037037,1,0,0,ansThree,,,,,,,,,,,,,,,,,002,2022-11-02_00h22.36.021,musicalMathTest,2022.2.0,60.05151218790269,
music\calm\vocals\You & Me featuring Ural Thomas (90) by Bridge City Revival.wav,you and me,calm,vocals,1,90,A,subtract,63,58,5,10,9,8,0,7,7,7,0,7,7,41,,,,,,,,,,,,,,,,,,,,,,,,,,,,,,,775.9627515000175,775.9627515000175,775.9627515000175,775.9627515000175,775.9627515000175,0.012721400009468198,775.9627515000175,True,0.09074074074074075,-0.40185185185185185,1,0,0,ansThree,,,,,,,,,,,,,,,,,002,2022-11-02_00h22.36.021,musicalMathTest,2022.2.0,60.05151218790269,
music\calm\vocals\You & Me featuring Ural Thomas (90) by Bridge City Revival.wav,you and me,calm,vocals,1,90,A,multiply,2,14,28,29,31,30,0,7,7,7,0,8,8,86,,,,,,,,,,,,,,,,,,,,,,,,,,,,,,,778.9628612000379,778.9628612000379,778.9628612000379,778.9628612000379,778.9628612000379,0.013427399971988052,778.9628612000379,True,-0.30648148148148147,-0.3972222222222222,1,0,0,ansOne,,,,,,,,,,,,,,,,,002,2022-11-02_00h22.36.021,musicalMathTest,2022.2.0,60.05151218790269,
music\calm\vocals\You & Me featuring Ural Thomas (90) by Bridge City Revival.wav,you and me,calm,vocals,1,90,A,multiply,10,11,110,115,118,115,0,7,7,7,0,9,9,97,,,,,,,,,,,,,,,,,,,,,,,,,,,,,,,781.0287484000437,781.0287484000437,781.0287484000437,781.0287484000437,781.0287484000437,0.01286620000610128,781.0287484000437,True,-0.0824074074074074,-0.39444444444444443,1,0,0,ansTwo,,,,,,,,,,,,,,,,,002,2022-11-02_00h22.36.021,musicalMathTest,2022.2.0,60.05151218790269,
