songfilename,SongName,Speed,Condition,fileblock,testdurationsec,CategoryType,NumOne,NumTwo,Correct,Incorrect1,Incorrect2,Incorrect3,musicTypeLoop.thisRepN,musicTypeLoop.thisTrialN,musicTypeLoop.thisN,musicTypeLoop.thisIndex,trialsMath.thisRepN,trialsMath.thisTrialN,trialsMath.thisN,trialsMath.thisIndex,partInfoImage.started,partinfomouse.started,partinfomouse.x,partinfomouse.y,partinfomouse.leftButton,partinfomouse.midButton,partinfomouse.rightButton,partInfoImage_2.started,partinfomouse_2.started,consentBox.started,partinfomouse_2.x,partinfomouse_2.y,partinfomouse_2.leftButton,partinfomouse_2.midButton,partinfomouse_2.rightButton,partinfomouse_2.clicked_name,partInfoImage_3.started,partinfomouse_3.started,partinfomouse_3.x,partinfomouse_3.y,partinfomouse_3.leftButton,partinfomouse_3.midButton,partinfomouse_3.rightButton,partInfoImage_4.started,partinfomouse_4.started,partinfomouse_4.x,partinfomouse_4.y,partinfomouse_4.leftButton,partinfomouse_4.midButton,partinfomouse_4.rightButton,question.started,ansOne.started,ansTwo.started,ansThree.started,ansFour.started,mouseclickResponse.started,debuginfo.started,correctClick,mouseclickResponse.x,mouseclickResponse.y,mouseclickResponse.leftButton,mouseclickResponse.midButton,mouseclickResponse.rightButton,mouseclickResponse.clicked_name,text.started,partInfoImage_5.started,partinfomouse_5.started,partinfomouse_5.x,partinfomouse_5.y,partinfomouse_5.leftButton,partinfomouse_5.midButton,partinfomouse_5.rightButton,partInfoImage_6.started,partinfomouse_6.started,partinfomouse_6.x,partinfomouse_6.y,partinfomouse_6.leftButton,partinfomouse_6.midButton,partinfomouse_6.rightButton,session,date,expName,psychopyVersion,frameRate,
,,,,,,,,,,,,,,,,,,,,,13.23653639999975,1.630000042496249e-05,-0.07592592592592592,0.032407407407407406,1,0,0,,,,,,,,,,,,,,,,,,,,,,,,,,,,,,,,,,,,,,,,,,,,,,,,,,,,,002,2022-11-02_01h11.45.986,musicalMathTest,2022.2.4,59.89767081835093,
,,,,,,,,,,,,,,,,,,,,,,,,,,,,16.977368400002888,1.7599995771888644e-05,16.977368400002888,0.36527777777777776,-0.4615740740740741,1,0,0,consentBox,,,,,,,,,,,,,,,,,,,,,,,,,,,,,,,,,,,,,,,,,,,,002,2022-11-02_01h11.45.986,musicalMathTest,2022.2.4,59.89767081835093,
,,,,,,,,,,,,,,,,,,,,,,,,,,,,,,,,,,,,,18.07839270000113,1.2999997125007212e-05,0.3523148148148148,-0.11064814814814815,1,0,0,,,,,,,,,,,,,,,,,,,,,,,,,,,,,,,,,,,,,002,2022-11-02_01h11.45.986,musicalMathTest,2022.2.4,59.89767081835093,
music\calm\vocals\Rose Gold (90) by Cabri x Sub Q Taneous.wav,rose gold,calm,vocals,2,90,subtract,42,39,3,7,8,5,0,0,0,8,0,0,0,33,,,,,,,,,,,,,,,,,,,,,,,,18.87766019999981,0.015759300003992394,0.3523148148148148,-0.11064814814814815,1,0,0,19.474645399997826,19.474645399997826,19.474645399997826,19.474645399997826,19.474645399997826,0.03856220000307076,19.474645399997826,True,0.1037037037037037,-0.3958333333333333,1,0,0,ansThree,,,,,,,,,,,,,,,,002,2022-11-02_01h11.45.986,musicalMathTest,2022.2.4,59.89767081835093,
music\calm\vocals\Rose Gold (90) by Cabri x Sub Q Taneous.wav,rose gold,calm,vocals,2,90,multiply,5,15,75,77,85,77,0,0,0,8,0,1,1,71,,,,,,,,,,,,,,,,,,,,,,,,,,,,,,,26.832809300001827,26.832809300001827,26.832809300001827,26.832809300001827,26.832809300001827,0.007419499997922685,26.832809300001827,True,-0.3,-0.39675925925925926,1,0,0,ansOne,,,,,,,,,,,,,,,,002,2022-11-02_01h11.45.986,musicalMathTest,2022.2.4,59.89767081835093,
music\calm\vocals\Rose Gold (90) by Cabri x Sub Q Taneous.wav,rose gold,calm,vocals,2,90,multiply,10,3,30,32,33,37,0,0,0,8,0,2,2,94,,,,,,,,,,,,,,,,,,,,,,,,,,,,,,,31.855779500001518,31.855779500001518,31.855779500001518,31.855779500001518,31.855779500001518,0.007338899995374959,31.855779500001518,True,0.11574074074074074,-0.40370370370370373,1,0,0,ansThree,,,,,,,,,,,,,,,,002,2022-11-02_01h11.45.986,musicalMathTest,2022.2.4,59.89767081835093,
music\calm\vocals\Rose Gold (90) by Cabri x Sub Q Taneous.wav,rose gold,calm,vocals,2,90,add,55,55,110,115,117,111,0,0,0,8,0,3,3,21,,,,,,,,,,,,,,,,,,,,,,,,,,,,,,,33.26004449999891,33.26004449999891,33.26004449999891,33.26004449999891,33.26004449999891,0.010085800000524614,33.26004449999891,True,-0.29768518518518516,-0.4023148148148148,1,0,0,ansOne,,,,,,,,,,,,,,,,002,2022-11-02_01h11.45.986,musicalMathTest,2022.2.4,59.89767081835093,
music\calm\vocals\Rose Gold (90) by Cabri x Sub Q Taneous.wav,rose gold,calm,vocals,2,90,subtract,55,19,36,42,43,37,0,0,0,8,0,4,4,44,,,,,,,,,,,,,,,,,,,,,,,,,,,,,,,35.71308950000093,35.71308950000093,35.71308950000093,35.71308950000093,35.71308950000093,0.009100800001760945,35.71308950000093,True,0.09768518518518518,-0.39490740740740743,1,0,0,ansThree,,,,,,,,,,,,,,,,002,2022-11-02_01h11.45.986,musicalMathTest,2022.2.4,59.89767081835093,
music\calm\vocals\Rose Gold (90) by Cabri x Sub Q Taneous.wav,rose gold,calm,vocals,2,90,multiply,2,4,8,11,13,9,0,0,0,8,0,5,5,88,,,,,,,,,,,,,,,,,,,,,,,,,,,,,,,43.13337039999897,43.13337039999897,43.13337039999897,43.13337039999897,43.13337039999897,0.005913699998927768,43.13337039999897,True,0.09768518518518518,-0.39444444444444443,1,0,0,ansThree,,,,,,,,,,,,,,,,002,2022-11-02_01h11.45.986,musicalMathTest,2022.2.4,59.89767081835093,
music\calm\vocals\Rose Gold (90) by Cabri x Sub Q Taneous.wav,rose gold,calm,vocals,2,90,subtract,40,39,1,6,3,9,0,0,0,8,0,6,6,46,,,,,,,,,,,,,,,,,,,,,,,,,,,,,,,45.217684099996404,45.217684099996404,45.217684099996404,45.217684099996404,45.217684099996404,0.016458800004329532,45.217684099996404,True,-0.1050925925925926,-0.39166666666666666,1,0,0,ansTwo,,,,,,,,,,,,,,,,002,2022-11-02_01h11.45.986,musicalMathTest,2022.2.4,59.89767081835093,
music\calm\vocals\Rose Gold (90) by Cabri x Sub Q Taneous.wav,rose gold,calm,vocals,2,90,multiply,10,17,170,171,178,176,0,0,0,8,0,7,7,65,,,,,,,,,,,,,,,,,,,,,,,,,,,,,,,47.4404280000017,47.4404280000017,47.4404280000017,47.4404280000017,47.4404280000017,0.006850900004792493,47.4404280000017,True,-0.30925925925925923,-0.4060185185185185,1,0,0,ansOne,,,,,,,,,,,,,,,,002,2022-11-02_01h11.45.986,musicalMathTest,2022.2.4,59.89767081835093,
music\calm\vocals\Rose Gold (90) by Cabri x Sub Q Taneous.wav,rose gold,calm,vocals,2,90,multiply,15,10,150,153,155,159,0,0,0,8,0,8,8,67,,,,,,,,,,,,,,,,,,,,,,,,,,,,,,,48.854927399996086,48.854927399996086,48.854927399996086,48.854927399996086,48.854927399996086,0.006044999994628597,48.854927399996086,True,-0.09907407407407408,-0.38935185185185184,1,0,0,ansTwo,,,,,,,,,,,,,,,,002,2022-11-02_01h11.45.986,musicalMathTest,2022.2.4,59.89767081835093,
music\calm\vocals\Rose Gold (90) by Cabri x Sub Q Taneous.wav,rose gold,calm,vocals,2,90,multiply,3,10,30,34,37,31,0,0,0,8,0,9,9,90,,,,,,,,,,,,,,,,,,,,,,,,,,,,,,,50.272920099996554,50.272920099996554,50.272920099996554,50.272920099996554,50.272920099996554,0.006569000004674308,50.272920099996554,True,0.09351851851851851,-0.4078703703703704,1,0,0,ansThree,,,,,,,,,,,,,,,,002,2022-11-02_01h11.45.986,musicalMathTest,2022.2.4,59.89767081835093,
music\calm\vocals\Rose Gold (90) by Cabri x Sub Q Taneous.wav,rose gold,calm,vocals,2,90,multiply,5,15,75,76,78,77,0,0,0,8,0,10,10,111,,,,,,,,,,,,,,,,,,,,,,,,,,,,,,,52.092960299996776,52.092960299996776,52.092960299996776,52.092960299996776,52.092960299996776,0.007158699998399243,52.092960299996776,True,0.10138888888888889,-0.39675925925925926,1,0,0,ansThree,,,,,,,,,,,,,,,,002,2022-11-02_01h11.45.986,musicalMathTest,2022.2.4,59.89767081835093,
music\calm\vocals\Rose Gold (90) by Cabri x Sub Q Taneous.wav,rose gold,calm,vocals,2,90,subtract,19,10,9,10,12,16,0,0,0,8,0,11,11,57,,,,,,,,,,,,,,,,,,,,,,,,,,,,,,,56.31319000000076,56.31319000000076,56.31319000000076,56.31319000000076,56.31319000000076,0.005707199998141732,56.31319000000076,True,-0.10833333333333334,-0.39814814814814814,1,0,0,ansTwo,,,,,,,,,,,,,,,,002,2022-11-02_01h11.45.986,musicalMathTest,2022.2.4,59.89767081835093,
music\calm\vocals\Rose Gold (90) by Cabri x Sub Q Taneous.wav,rose gold,calm,vocals,2,90,subtract,23,16,7,11,8,12,0,0,0,8,0,12,12,43,,,,,,,,,,,,,,,,,,,,,,,,,,,,,,,58.4710294999968,58.4710294999968,58.4710294999968,58.4710294999968,58.4710294999968,0.009129300000495277,58.4710294999968,True,-0.3,-0.4013888888888889,1,0,0,ansOne,,,,,,,,,,,,,,,,002,2022-11-02_01h11.45.986,musicalMathTest,2022.2.4,59.89767081835093,
music\calm\vocals\Rose Gold (90) by Cabri x Sub Q Taneous.wav,rose gold,calm,vocals,2,90,subtract,16,15,1,7,3,7,0,0,0,8,0,13,13,45,,,,,,,,,,,,,,,,,,,,,,,,,,,,,,,63.18618399999832,63.18618399999832,63.18618399999832,63.18618399999832,63.18618399999832,0.0067266999976709485,63.18618399999832,True,-0.3087962962962963,-0.3972222222222222,1,0,0,ansOne,,,,,,,,,,,,,,,,002,2022-11-02_01h11.45.986,musicalMathTest,2022.2.4,59.89767081835093,
music\calm\vocals\Rose Gold (90) by Cabri x Sub Q Taneous.wav,rose gold,calm,vocals,2,90,add,55,15,70,77,71,72,0,0,0,8,0,14,14,1,,,,,,,,,,,,,,,,,,,,,,,,,,,,,,,65.5591459999996,65.5591459999996,65.5591459999996,65.5591459999996,65.5591459999996,0.007082100004481617,65.5591459999996,True,0.10648148148148148,-0.39675925925925926,1,0,0,ansThree,,,,,,,,,,,,,,,,002,2022-11-02_01h11.45.986,musicalMathTest,2022.2.4,59.89767081835093,
music\calm\vocals\Rose Gold (90) by Cabri x Sub Q Taneous.wav,rose gold,calm,vocals,2,90,multiply,10,15,150,151,153,157,0,0,0,8,0,15,15,79,,,,,,,,,,,,,,,,,,,,,,,,,,,,,,,70.10392480000155,70.10392480000155,70.10392480000155,70.10392480000155,70.10392480000155,0.013933000001998153,70.10392480000155,True,0.12175925925925926,-0.4023148148148148,1,0,0,ansThree,,,,,,,,,,,,,,,,002,2022-11-02_01h11.45.986,musicalMathTest,2022.2.4,59.89767081835093,
music\calm\vocals\Rose Gold (90) by Cabri x Sub Q Taneous.wav,rose gold,calm,vocals,2,90,multiply,10,3,30,37,39,35,0,0,0,8,0,16,16,102,,,,,,,,,,,,,,,,,,,,,,,,,,,,,,,71.39454809999734,71.39454809999734,71.39454809999734,71.39454809999734,71.39454809999734,0.006114600000728387,71.39454809999734,True,-0.08148148148148149,-0.40185185185185185,1,0,0,ansTwo,,,,,,,,,,,,,,,,002,2022-11-02_01h11.45.986,musicalMathTest,2022.2.4,59.89767081835093,
music\calm\vocals\Rose Gold (90) by Cabri x Sub Q Taneous.wav,rose gold,calm,vocals,2,90,subtract,16,10,6,7,9,12,0,0,0,8,0,17,17,53,,,,,,,,,,,,,,,,,,,,,,,,,,,,,,,72.77241289999802,72.77241289999802,72.77241289999802,72.77241289999802,72.77241289999802,0.013280600003781728,72.77241289999802,True,-0.09861111111111111,-0.4009259259259259,1,0,0,ansTwo,,,,,,,,,,,,,,,,002,2022-11-02_01h11.45.986,musicalMathTest,2022.2.4,59.89767081835093,
music\calm\vocals\Rose Gold (90) by Cabri x Sub Q Taneous.wav,rose gold,calm,vocals,2,90,add,55,39,94,96,102,106,0,0,0,8,0,18,18,5,,,,,,,,,,,,,,,,,,,,,,,,,,,,,,,75.36648920000152,75.36648920000152,75.36648920000152,75.36648920000152,75.36648920000152,0.006804199998441618,75.36648920000152,True,-0.10277777777777777,-0.399537037037037,1,0,0,ansTwo,,,,,,,,,,,,,,,,002,2022-11-02_01h11.45.986,musicalMathTest,2022.2.4,59.89767081835093,
music\calm\vocals\Rose Gold (90) by Cabri x Sub Q Taneous.wav,rose gold,calm,vocals,2,90,add,16,10,26,27,33,29,0,0,0,8,0,19,19,22,,,,,,,,,,,,,,,,,,,,,,,,,,,,,,,83.91053000000102,83.91053000000102,83.91053000000102,83.91053000000102,83.91053000000102,0.008417600001848768,83.91053000000102,True,-0.29212962962962963,-0.39490740740740743,1,0,0,ansOne,,,,,,,,,,,,,,,,002,2022-11-02_01h11.45.986,musicalMathTest,2022.2.4,59.89767081835093,
music\calm\vocals\Rose Gold (90) by Cabri x Sub Q Taneous.wav,rose gold,calm,vocals,2,90,multiply,17,10,170,176,180,172,0,0,0,8,0,20,20,69,,,,,,,,,,,,,,,,,,,,,,,,,,,,,,,86.47816810000222,86.47816810000222,86.47816810000222,86.47816810000222,86.47816810000222,0.006975500000407919,86.47816810000222,True,-0.09166666666666666,-0.40046296296296297,1,0,0,ansTwo,,,,,,,,,,,,,,,,002,2022-11-02_01h11.45.986,musicalMathTest,2022.2.4,59.89767081835093,
music\calm\vocals\Rose Gold (90) by Cabri x Sub Q Taneous.wav,rose gold,calm,vocals,2,90,subtract,37,37,0,2,4,2,0,0,0,8,0,21,21,50,,,,,,,,,,,,,,,,,,,,,,,,,,,,,,,87.87932040000305,87.87932040000305,87.87932040000305,87.87932040000305,87.87932040000305,0.007711199999903329,87.87932040000305,True,-0.29814814814814816,-0.38981481481481484,1,0,0,ansOne,,,,,,,,,,,,,,,,002,2022-11-02_01h11.45.986,musicalMathTest,2022.2.4,59.89767081835093,
music\calm\vocals\Rose Gold (90) by Cabri x Sub Q Taneous.wav,rose gold,calm,vocals,2,90,add,15,10,25,35,37,29,0,0,0,8,0,22,22,30,,,,,,,,,,,,,,,,,,,,,,,,,,,,,,,89.51516049999918,89.51516049999918,89.51516049999918,89.51516049999918,89.51516049999918,0.007256600001710467,89.51516049999918,True,-0.3074074074074074,-0.40046296296296297,1,0,0,ansOne,,,,,,,,,,,,,,,,002,2022-11-02_01h11.45.986,musicalMathTest,2022.2.4,59.89767081835093,
music\calm\vocals\Rose Gold (90) by Cabri x Sub Q Taneous.wav,rose gold,calm,vocals,2,90,add,23,19,42,46,49,44,0,0,0,8,0,23,23,0,,,,,,,,,,,,,,,,,,,,,,,,,,,,,,,90.9835208000004,90.9835208000004,90.9835208000004,90.9835208000004,90.9835208000004,0.007130500001949258,90.9835208000004,True,-0.10231481481481482,-0.39351851851851855,1,0,0,ansTwo,,,,,,,,,,,,,,,,002,2022-11-02_01h11.45.986,musicalMathTest,2022.2.4,59.89767081835093,
music\calm\vocals\Rose Gold (90) by Cabri x Sub Q Taneous.wav,rose gold,calm,vocals,2,90,subtract,55,55,0,8,1,7,0,0,0,8,0,24,24,48,,,,,,,,,,,,,,,,,,,,,,,,,,,,,,,94.13870650000172,94.13870650000172,94.13870650000172,94.13870650000172,94.13870650000172,0.00810279999859631,94.13870650000172,True,-0.3023148148148148,-0.39814814814814814,1,0,0,ansOne,,,,,,,,,,,,,,,,002,2022-11-02_01h11.45.986,musicalMathTest,2022.2.4,59.89767081835093,
music\calm\vocals\Rose Gold (90) by Cabri x Sub Q Taneous.wav,rose gold,calm,vocals,2,90,multiply,4,10,40,43,44,42,0,0,0,8,0,25,25,92,,,,,,,,,,,,,,,,,,,,,,,,,,,,,,,95.57263480000256,95.57263480000256,95.57263480000256,95.57263480000256,95.57263480000256,0.008140700003423262,95.57263480000256,True,-0.09351851851851851,-0.3972222222222222,1,0,0,ansTwo,,,,,,,,,,,,,,,,002,2022-11-02_01h11.45.986,musicalMathTest,2022.2.4,59.89767081835093,
music\calm\vocals\Rose Gold (90) by Cabri x Sub Q Taneous.wav,rose gold,calm,vocals,2,90,multiply,15,5,75,83,77,80,0,0,0,8,0,26,26,83,,,,,,,,,,,,,,,,,,,,,,,,,,,,,,,96.87388919999648,96.87388919999648,96.87388919999648,96.87388919999648,96.87388919999648,0.006511600004159845,96.87388919999648,True,-0.3050925925925926,-0.40694444444444444,1,0,0,ansOne,,,,,,,,,,,,,,,,002,2022-11-02_01h11.45.986,musicalMathTest,2022.2.4,59.89767081835093,
music\calm\vocals\Rose Gold (90) by Cabri x Sub Q Taneous.wav,rose gold,calm,vocals,2,90,multiply,15,10,150,151,153,157,0,0,0,8,0,27,27,107,,,,,,,,,,,,,,,,,,,,,,,,,,,,,,,99.52441160000308,99.52441160000308,99.52441160000308,99.52441160000308,99.52441160000308,0.006725499995809514,99.52441160000308,True,-0.29953703703703705,-0.4162037037037037,1,0,0,ansOne,,,,,,,,,,,,,,,,002,2022-11-02_01h11.45.986,musicalMathTest,2022.2.4,59.89767081835093,
music\calm\vocals\Rose Gold (90) by Cabri x Sub Q Taneous.wav,rose gold,calm,vocals,2,90,multiply,4,10,40,45,42,48,0,0,0,8,0,28,28,108,,,,,,,,,,,,,,,,,,,,,,,,,,,,,,,101.22533039999689,101.22533039999689,101.22533039999689,101.22533039999689,101.22533039999689,0.018200999998953193,101.22533039999689,True,-0.29768518518518516,-0.4013888888888889,1,0,0,ansOne,,,,,,,,,,,,,,,,002,2022-11-02_01h11.45.986,musicalMathTest,2022.2.4,59.89767081835093,
music\calm\vocals\Rose Gold (90) by Cabri x Sub Q Taneous.wav,rose gold,calm,vocals,2,90,add,37,37,74,78,80,79,0,0,0,8,0,29,29,19,,,,,,,,,,,,,,,,,,,,,,,,,,,,,,,102.8444423999972,102.8444423999972,102.8444423999972,102.8444423999972,102.8444423999972,0.007148100004997104,102.8444423999972,True,-0.30277777777777776,-0.3851851851851852,1,0,0,ansOne,,,,,,,,,,,,,,,,002,2022-11-02_01h11.45.986,musicalMathTest,2022.2.4,59.89767081835093,
music\calm\vocals\Rose Gold (90) by Cabri x Sub Q Taneous.wav,rose gold,calm,vocals,2,90,multiply,4,2,8,13,11,13,0,0,0,8,0,30,30,116,,,,,,,,,,,,,,,,,,,,,,,,,,,,,,,107.5902070000011,107.5902070000011,107.5902070000011,107.5902070000011,107.5902070000011,0.014327899996715132,107.5902070000011,True,0.10324074074074074,-0.40324074074074073,1,0,0,ansThree,,,,,,,,,,,,,,,,002,2022-11-02_01h11.45.986,musicalMathTest,2022.2.4,59.89767081835093,
music\silence.wav,silent,silent,silent,2,90,multiply,9,10,90,91,98,95,0,1,1,4,0,0,0,107,,,,,,,,,,,,,,,,,,,,,,,,114.60084079999797,0.01962959999946179,0.1439814814814815,-0.17222222222222222,1,0,0,115.30027690000134,115.30027690000134,115.30027690000134,115.30027690000134,115.30027690000134,0.016547999999602325,115.30027690000134,True,-0.30185185185185187,-0.3990740740740741,1,0,0,ansOne,109.58234670000093,,,,,,,,,,,,,,,002,2022-11-02_01h11.45.986,musicalMathTest,2022.2.4,59.89767081835093,
music\silence.wav,silent,silent,silent,2,90,multiply,10,16,160,164,161,168,0,1,1,4,0,1,1,81,,,,,,,,,,,,,,,,,,,,,,,,,,,,,,,116.97764499999903,116.97764499999903,116.97764499999903,116.97764499999903,116.97764499999903,0.00749799999903189,116.97764499999903,True,-0.3037037037037037,-0.4013888888888889,1,0,0,ansOne,,,,,,,,,,,,,,,,002,2022-11-02_01h11.45.986,musicalMathTest,2022.2.4,59.89767081835093,
music\silence.wav,silent,silent,silent,2,90,multiply,9,10,90,91,93,96,0,1,1,4,0,2,2,75,,,,,,,,,,,,,,,,,,,,,,,,,,,,,,,118.79101229999651,118.79101229999651,118.79101229999651,118.79101229999651,118.79101229999651,0.006195800000568852,118.79101229999651,True,0.0962962962962963,-0.40185185185185185,1,0,0,ansThree,,,,,,,,,,,,,,,,002,2022-11-02_01h11.45.986,musicalMathTest,2022.2.4,59.89767081835093,
music\silence.wav,silent,silent,silent,2,90,multiply,5,16,80,84,90,85,0,1,1,4,0,3,3,113,,,,,,,,,,,,,,,,,,,,,,,,,,,,,,,120.14211660000001,120.14211660000001,120.14211660000001,120.14211660000001,120.14211660000001,0.006177000002935529,120.14211660000001,True,-0.09166666666666666,-0.4060185185185185,1,0,0,ansTwo,,,,,,,,,,,,,,,,002,2022-11-02_01h11.45.986,musicalMathTest,2022.2.4,59.89767081835093,
music\silence.wav,silent,silent,silent,2,90,add,45,18,63,64,69,66,0,1,1,4,0,4,4,16,,,,,,,,,,,,,,,,,,,,,,,,,,,,,,,124.87016929999663,124.87016929999663,124.87016929999663,124.87016929999663,124.87016929999663,0.021691800000553485,124.87016929999663,True,-0.09907407407407408,-0.40324074074074073,1,0,0,ansTwo,,,,,,,,,,,,,,,,002,2022-11-02_01h11.45.986,musicalMathTest,2022.2.4,59.89767081835093,
music\silence.wav,silent,silent,silent,2,90,subtract,52,18,34,36,37,24,0,1,1,4,0,5,5,51,,,,,,,,,,,,,,,,,,,,,,,,,,,,,,,134.59248749999824,134.59248749999824,134.59248749999824,134.59248749999824,134.59248749999824,0.006561100002727471,134.59248749999824,True,0.10092592592592593,-0.39861111111111114,1,0,0,ansThree,,,,,,,,,,,,,,,,002,2022-11-02_01h11.45.986,musicalMathTest,2022.2.4,59.89767081835093,
music\silence.wav,silent,silent,silent,2,90,multiply,10,9,90,93,91,93,0,1,1,4,0,6,6,79,,,,,,,,,,,,,,,,,,,,,,,,,,,,,,,147.43913079999766,147.43913079999766,147.43913079999766,147.43913079999766,147.43913079999766,0.006699900004605297,147.43913079999766,True,-0.1,-0.40370370370370373,1,0,0,ansTwo,,,,,,,,,,,,,,,,002,2022-11-02_01h11.45.986,musicalMathTest,2022.2.4,59.89767081835093,
music\silence.wav,silent,silent,silent,2,90,multiply,10,16,160,167,170,164,0,1,1,4,0,7,7,105,,,,,,,,,,,,,,,,,,,,,,,,,,,,,,,149.05825429999823,149.05825429999823,149.05825429999823,149.05825429999823,149.05825429999823,0.00688090000039665,149.05825429999823,True,-0.08425925925925926,-0.3939814814814815,1,0,0,ansTwo,,,,,,,,,,,,,,,,002,2022-11-02_01h11.45.986,musicalMathTest,2022.2.4,59.89767081835093,
music\silence.wav,silent,silent,silent,2,90,add,49,45,94,101,98,96,0,1,1,4,0,8,8,13,,,,,,,,,,,,,,,,,,,,,,,,,,,,,,,150.67547789999662,150.67547789999662,150.67547789999662,150.67547789999662,150.67547789999662,0.007154099999752361,150.67547789999662,True,-0.1037037037037037,-0.399537037037037,1,0,0,ansTwo,,,,,,,,,,,,,,,,002,2022-11-02_01h11.45.986,musicalMathTest,2022.2.4,59.89767081835093,
music\silence.wav,silent,silent,silent,2,90,multiply,5,5,25,30,27,32,0,1,1,4,0,9,9,100,,,,,,,,,,,,,,,,,,,,,,,,,,,,,,,154.89674060000107,154.89674060000107,154.89674060000107,154.89674060000107,154.89674060000107,0.006485700003395323,154.89674060000107,True,-0.08611111111111111,-0.4046296296296296,1,0,0,ansTwo,,,,,,,,,,,,,,,,002,2022-11-02_01h11.45.986,musicalMathTest,2022.2.4,59.89767081835093,
music\silence.wav,silent,silent,silent,2,90,add,35,24,59,60,61,66,0,1,1,4,0,10,10,19,,,,,,,,,,,,,,,,,,,,,,,,,,,,,,,156.06531079999695,156.06531079999695,156.06531079999695,156.06531079999695,156.06531079999695,0.007757200000924058,156.06531079999695,True,-0.29212962962962963,-0.39814814814814814,1,0,0,ansOne,,,,,,,,,,,,,,,,002,2022-11-02_01h11.45.986,musicalMathTest,2022.2.4,59.89767081835093,
music\silence.wav,silent,silent,silent,2,90,subtract,24,20,4,5,9,7,0,1,1,4,0,11,11,46,,,,,,,,,,,,,,,,,,,,,,,,,,,,,,,159.15098720000242,159.15098720000242,159.15098720000242,159.15098720000242,159.15098720000242,0.006124499996076338,159.15098720000242,True,-0.10555555555555556,-0.4,1,0,0,ansTwo,,,,,,,,,,,,,,,,002,2022-11-02_01h11.45.986,musicalMathTest,2022.2.4,59.89767081835093,
music\silence.wav,silent,silent,silent,2,90,multiply,5,10,50,51,52,53,0,1,1,4,0,12,12,68,,,,,,,,,,,,,,,,,,,,,,,,,,,,,,,160.6055869999982,160.6055869999982,160.6055869999982,160.6055869999982,160.6055869999982,0.009198300002026372,160.6055869999982,True,0.1050925925925926,-0.4009259259259259,1,0,0,ansThree,,,,,,,,,,,,,,,,002,2022-11-02_01h11.45.986,musicalMathTest,2022.2.4,59.89767081835093,
music\silence.wav,silent,silent,silent,2,90,add,45,45,90,97,92,94,0,1,1,4,0,13,13,0,,,,,,,,,,,,,,,,,,,,,,,,,,,,,,,162.06979449999926,162.06979449999926,162.06979449999926,162.06979449999926,162.06979449999926,0.006565600000612903,162.06979449999926,True,-0.11157407407407408,-0.4064814814814815,1,0,0,ansTwo,,,,,,,,,,,,,,,,002,2022-11-02_01h11.45.986,musicalMathTest,2022.2.4,59.89767081835093,
music\silence.wav,silent,silent,silent,2,90,subtract,52,17,35,43,41,38,0,1,1,4,0,14,14,48,,,,,,,,,,,,,,,,,,,,,,,,,,,,,,,165.22410020000098,165.22410020000098,165.22410020000098,165.22410020000098,165.22410020000098,0.0062366000056499615,165.22410020000098,True,0.10138888888888889,-0.4050925925925926,1,0,0,ansThree,,,,,,,,,,,,,,,,002,2022-11-02_01h11.45.986,musicalMathTest,2022.2.4,59.89767081835093,
music\silence.wav,silent,silent,silent,2,90,subtract,45,45,0,7,2,5,0,1,1,4,0,15,15,31,,,,,,,,,,,,,,,,,,,,,,,,,,,,,,,175.65403330000117,175.65403330000117,175.65403330000117,175.65403330000117,175.65403330000117,0.008035500002733897,175.65403330000117,True,-0.2962962962962963,-0.4046296296296296,1,0,0,ansOne,,,,,,,,,,,,,,,,002,2022-11-02_01h11.45.986,musicalMathTest,2022.2.4,59.89767081835093,
music\silence.wav,silent,silent,silent,2,90,multiply,8,10,80,85,90,94,0,1,1,4,0,16,16,74,,,,,,,,,,,,,,,,,,,,,,,,,,,,,,,179.45431899999676,179.45431899999676,179.45431899999676,179.45431899999676,179.45431899999676,0.006633999997575302,179.45431899999676,True,-0.29444444444444445,-0.39861111111111114,1,0,0,ansOne,,,,,,,,,,,,,,,,002,2022-11-02_01h11.45.986,musicalMathTest,2022.2.4,59.89767081835093,
music\silence.wav,silent,silent,silent,2,90,multiply,5,10,50,52,60,51,0,1,1,4,0,17,17,108,,,,,,,,,,,,,,,,,,,,,,,,,,,,,,,181.20612940000137,181.20612940000137,181.20612940000137,181.20612940000137,181.20612940000137,0.005937199995969422,181.20612940000137,True,-0.2912037037037037,-0.39351851851851855,1,0,0,ansOne,,,,,,,,,,,,,,,,002,2022-11-02_01h11.45.986,musicalMathTest,2022.2.4,59.89767081835093,
music\silence.wav,silent,silent,silent,2,90,add,20,18,38,42,40,44,0,1,1,4,0,18,18,24,,,,,,,,,,,,,,,,,,,,,,,,,,,,,,,182.60799479999696,182.60799479999696,182.60799479999696,182.60799479999696,182.60799479999696,0.006191899999976158,182.60799479999696,True,0.09953703703703703,-0.3976851851851852,1,0,0,ansThree,,,,,,,,,,,,,,,,002,2022-11-02_01h11.45.986,musicalMathTest,2022.2.4,59.89767081835093,
music\silence.wav,silent,silent,silent,2,90,multiply,2,9,18,19,22,26,0,1,1,4,0,19,19,87,,,,,,,,,,,,,,,,,,,,,,,,,,,,,,,184.5236827999979,184.5236827999979,184.5236827999979,184.5236827999979,184.5236827999979,0.016434400000434835,184.5236827999979,True,-0.3013888888888889,-0.3990740740740741,1,0,0,ansOne,,,,,,,,,,,,,,,,002,2022-11-02_01h11.45.986,musicalMathTest,2022.2.4,59.89767081835093,
music\silence.wav,silent,silent,silent,2,90,multiply,10,9,90,98,94,97,0,1,1,4,0,20,20,63,,,,,,,,,,,,,,,,,,,,,,,,,,,,,,,186.51127219999762,186.51127219999762,186.51127219999762,186.51127219999762,186.51127219999762,0.006544299998495262,186.51127219999762,True,0.09259259259259259,-0.399537037037037,1,0,0,ansThree,,,,,,,,,,,,,,,,002,2022-11-02_01h11.45.986,musicalMathTest,2022.2.4,59.89767081835093,
music\silence.wav,silent,silent,silent,2,90,subtract,35,18,17,18,7,23,0,1,1,4,0,21,21,59,,,,,,,,,,,,,,,,,,,,,,,,,,,,,,,188.46435249999922,188.46435249999922,188.46435249999922,188.46435249999922,188.46435249999922,0.006324499998299871,188.46435249999922,True,-0.08703703703703704,-0.39166666666666666,1,0,0,ansTwo,,,,,,,,,,,,,,,,002,2022-11-02_01h11.45.986,musicalMathTest,2022.2.4,59.89767081835093,
music\silence.wav,silent,silent,silent,2,90,multiply,10,8,80,90,92,83,0,1,1,4,0,22,22,94,,,,,,,,,,,,,,,,,,,,,,,,,,,,,,,195.96932450000168,195.96932450000168,195.96932450000168,195.96932450000168,195.96932450000168,0.006019599997671321,195.96932450000168,True,0.09583333333333334,-0.4041666666666667,1,0,0,ansThree,,,,,,,,,,,,,,,,002,2022-11-02_01h11.45.986,musicalMathTest,2022.2.4,59.89767081835093,
music\silence.wav,silent,silent,silent,2,90,add,45,24,69,74,72,74,0,1,1,4,0,23,23,23,,,,,,,,,,,,,,,,,,,,,,,,,,,,,,,197.49040870000317,197.49040870000317,197.49040870000317,197.49040870000317,197.49040870000317,0.006736499999533407,197.49040870000317,True,-0.29444444444444445,-0.4046296296296296,1,0,0,ansOne,,,,,,,,,,,,,,,,002,2022-11-02_01h11.45.986,musicalMathTest,2022.2.4,59.89767081835093,
music\silence.wav,silent,silent,silent,2,90,multiply,10,8,80,90,85,86,0,1,1,4,0,24,24,102,,,,,,,,,,,,,,,,,,,,,,,,,,,,,,,201.36706669999694,201.36706669999694,201.36706669999694,201.36706669999694,201.36706669999694,0.010365500005718786,201.36706669999694,True,-0.09351851851851851,-0.40185185185185185,1,0,0,ansTwo,,,,,,,,,,,,,,,,002,2022-11-02_01h11.45.986,musicalMathTest,2022.2.4,59.89767081835093,
music\silence.wav,silent,silent,silent,2,90,multiply,8,5,40,44,42,47,0,1,1,4,0,25,25,82,,,,,,,,,,,,,,,,,,,,,,,,,,,,,,,203.46015629999602,203.46015629999602,203.46015629999602,203.46015629999602,203.46015629999602,0.005981399997835979,203.46015629999602,True,-0.0962962962962963,-0.4050925925925926,1,0,0,ansTwo,,,,,,,,,,,,,,,,002,2022-11-02_01h11.45.986,musicalMathTest,2022.2.4,59.89767081835093,
music\calm\vocals\Younger Then (90) by Allebasi.wav,younger then,calm,vocals,2,90,subtract,60,55,5,13,12,8,0,2,2,3,0,0,0,56,,,,,,,,,,,,,,,,,,,,,,,,210.94456669999636,0.014932399993995205,-0.0032407407407407406,-0.2518518518518518,1,0,0,211.82317719999992,211.82317719999992,211.82317719999992,211.82317719999992,211.82317719999992,0.0196704000045429,211.82317719999992,True,-0.2986111111111111,-0.4023148148148148,1,0,0,ansOne,205.92961829999695,,,,,,,,,,,,,,,002,2022-11-02_01h11.45.986,musicalMathTest,2022.2.4,59.89767081835093,
music\calm\vocals\Younger Then (90) by Allebasi.wav,younger then,calm,vocals,2,90,add,19,19,38,43,48,42,0,2,2,3,0,1,1,10,,,,,,,,,,,,,,,,,,,,,,,,,,,,,,,216.03911459999654,216.03911459999654,216.03911459999654,216.03911459999654,216.03911459999654,0.006160900004033465,216.03911459999654,True,-0.09166666666666666,-0.3907407407407407,1,0,0,ansTwo,,,,,,,,,,,,,,,,002,2022-11-02_01h11.45.986,musicalMathTest,2022.2.4,59.89767081835093,
music\calm\vocals\Younger Then (90) by Allebasi.wav,younger then,calm,vocals,2,90,multiply,10,3,30,37,39,35,0,2,2,3,0,2,2,102,,,,,,,,,,,,,,,,,,,,,,,,,,,,,,,222.84837629999674,222.84837629999674,222.84837629999674,222.84837629999674,222.84837629999674,0.0071190999951795675,222.84837629999674,True,-0.09444444444444444,-0.3976851851851852,1,0,0,ansTwo,,,,,,,,,,,,,,,,002,2022-11-02_01h11.45.986,musicalMathTest,2022.2.4,59.89767081835093,
music\calm\vocals\Younger Then (90) by Allebasi.wav,younger then,calm,vocals,2,90,multiply,4,2,8,13,11,13,0,2,2,3,0,3,3,116,,,,,,,,,,,,,,,,,,,,,,,,,,,,,,,224.43398219999654,224.43398219999654,224.43398219999654,224.43398219999654,224.43398219999654,0.006623399996897206,224.43398219999654,True,-0.29444444444444445,-0.3902777777777778,1,0,0,ansOne,,,,,,,,,,,,,,,,002,2022-11-02_01h11.45.986,musicalMathTest,2022.2.4,59.89767081835093,
music\calm\vocals\Younger Then (90) by Allebasi.wav,younger then,calm,vocals,2,90,multiply,3,5,15,22,23,19,0,2,2,3,0,4,4,98,,,,,,,,,,,,,,,,,,,,,,,,,,,,,,,226.15073629999824,226.15073629999824,226.15073629999824,226.15073629999824,226.15073629999824,0.005837899996549822,226.15073629999824,True,0.09722222222222222,-0.3925925925925926,1,0,0,ansThree,,,,,,,,,,,,,,,,002,2022-11-02_01h11.45.986,musicalMathTest,2022.2.4,59.89767081835093,
music\calm\vocals\Younger Then (90) by Allebasi.wav,younger then,calm,vocals,2,90,multiply,5,3,15,23,25,23,0,2,2,3,0,5,5,110,,,,,,,,,,,,,,,,,,,,,,,,,,,,,,,228.0390305999972,228.0390305999972,228.0390305999972,228.0390305999972,228.0390305999972,0.008033199999772478,228.0390305999972,True,-0.09814814814814815,-0.3958333333333333,1,0,0,ansTwo,,,,,,,,,,,,,,,,002,2022-11-02_01h11.45.986,musicalMathTest,2022.2.4,59.89767081835093,
music\calm\vocals\Younger Then (90) by Allebasi.wav,younger then,calm,vocals,2,90,subtract,41,39,2,8,4,7,0,2,2,3,0,6,6,39,,,,,,,,,,,,,,,,,,,,,,,,,,,,,,,230.17151190000004,230.17151190000004,230.17151190000004,230.17151190000004,230.17151190000004,0.006238000001758337,230.17151190000004,True,-0.2949074074074074,-0.39444444444444443,1,0,0,ansOne,,,,,,,,,,,,,,,,002,2022-11-02_01h11.45.986,musicalMathTest,2022.2.4,59.89767081835093,
music\calm\vocals\Younger Then (90) by Allebasi.wav,younger then,calm,vocals,2,90,multiply,10,4,40,41,50,54,0,2,2,3,0,7,7,104,,,,,,,,,,,,,,,,,,,,,,,,,,,,,,,232.4071019999974,232.4071019999974,232.4071019999974,232.4071019999974,232.4071019999974,0.006358799997542519,232.4071019999974,True,-0.31527777777777777,-0.40925925925925927,1,0,0,ansOne,,,,,,,,,,,,,,,,002,2022-11-02_01h11.45.986,musicalMathTest,2022.2.4,59.89767081835093,
music\calm\vocals\Younger Then (90) by Allebasi.wav,younger then,calm,vocals,2,90,subtract,23,15,8,13,11,12,0,2,2,3,0,8,8,35,,,,,,,,,,,,,,,,,,,,,,,,,,,,,,,233.68075189999945,233.68075189999945,233.68075189999945,233.68075189999945,233.68075189999945,0.010625000002619345,233.68075189999945,True,-0.10231481481481482,-0.4101851851851852,1,0,0,ansTwo,,,,,,,,,,,,,,,,002,2022-11-02_01h11.45.986,musicalMathTest,2022.2.4,59.89767081835093,
music\calm\vocals\Younger Then (90) by Allebasi.wav,younger then,calm,vocals,2,90,multiply,5,17,85,87,86,91,0,2,2,3,0,9,9,113,,,,,,,,,,,,,,,,,,,,,,,,,,,,,,,237.89768439999898,237.89768439999898,237.89768439999898,237.89768439999898,237.89768439999898,0.007592000001750421,237.89768439999898,True,-0.2949074074074074,-0.39490740740740743,1,0,0,ansOne,,,,,,,,,,,,,,,,002,2022-11-02_01h11.45.986,musicalMathTest,2022.2.4,59.89767081835093,
music\calm\vocals\Younger Then (90) by Allebasi.wav,younger then,calm,vocals,2,90,subtract,55,39,16,24,20,21,0,2,2,3,0,10,10,36,,,,,,,,,,,,,,,,,,,,,,,,,,,,,,,243.15311379999912,243.15311379999912,243.15311379999912,243.15311379999912,243.15311379999912,0.007034300004306715,243.15311379999912,True,-0.30648148148148147,-0.39305555555555555,1,0,0,ansOne,,,,,,,,,,,,,,,,002,2022-11-02_01h11.45.986,musicalMathTest,2022.2.4,59.89767081835093,
music\calm\vocals\Younger Then (90) by Allebasi.wav,younger then,calm,vocals,2,90,add,23,15,38,41,44,41,0,2,2,3,0,11,11,4,,,,,,,,,,,,,,,,,,,,,,,,,,,,,,,251.16355420000036,251.16355420000036,251.16355420000036,251.16355420000036,251.16355420000036,0.007994300001882948,251.16355420000036,True,-0.10462962962962963,-0.399537037037037,1,0,0,ansTwo,,,,,,,,,,,,,,,,002,2022-11-02_01h11.45.986,musicalMathTest,2022.2.4,59.89767081835093,
music\calm\vocals\Younger Then (90) by Allebasi.wav,younger then,calm,vocals,2,90,subtract,19,19,0,2,1,8,0,2,2,3,0,12,12,41,,,,,,,,,,,,,,,,,,,,,,,,,,,,,,,253.7783197999961,253.7783197999961,253.7783197999961,253.7783197999961,253.7783197999961,0.005888300001970492,253.7783197999961,True,0.09722222222222222,-0.3958333333333333,1,0,0,ansThree,,,,,,,,,,,,,,,,002,2022-11-02_01h11.45.986,musicalMathTest,2022.2.4,59.89767081835093,
music\calm\vocals\Younger Then (90) by Allebasi.wav,younger then,calm,vocals,2,90,multiply,5,15,75,77,85,77,0,2,2,3,0,13,13,71,,,,,,,,,,,,,,,,,,,,,,,,,,,,,,,255.3923450000002,255.3923450000002,255.3923450000002,255.3923450000002,255.3923450000002,0.01410339999711141,255.3923450000002,True,-0.29259259259259257,-0.3958333333333333,1,0,0,ansOne,,,,,,,,,,,,,,,,002,2022-11-02_01h11.45.986,musicalMathTest,2022.2.4,59.89767081835093,
music\calm\vocals\Younger Then (90) by Allebasi.wav,younger then,calm,vocals,2,90,subtract,58,55,3,6,10,7,0,2,2,3,0,14,14,60,,,,,,,,,,,,,,,,,,,,,,,,,,,,,,,259.3010910000012,259.3010910000012,259.3010910000012,259.3010910000012,259.3010910000012,0.0063450999950873666,259.3010910000012,True,0.10185185185185185,-0.4027777777777778,1,0,0,ansThree,,,,,,,,,,,,,,,,002,2022-11-02_01h11.45.986,musicalMathTest,2022.2.4,59.89767081835093,
music\calm\vocals\Younger Then (90) by Allebasi.wav,younger then,calm,vocals,2,90,multiply,3,2,6,9,10,13,0,2,2,3,0,15,15,114,,,,,,,,,,,,,,,,,,,,,,,,,,,,,,,265.79499889999715,265.79499889999715,265.79499889999715,265.79499889999715,265.79499889999715,0.009607699998014141,265.79499889999715,True,-0.1050925925925926,-0.39351851851851855,1,0,0,ansTwo,,,,,,,,,,,,,,,,002,2022-11-02_01h11.45.986,musicalMathTest,2022.2.4,59.89767081835093,
music\calm\vocals\Younger Then (90) by Allebasi.wav,younger then,calm,vocals,2,90,multiply,10,3,30,37,35,40,0,2,2,3,0,16,16,62,,,,,,,,,,,,,,,,,,,,,,,,,,,,,,,267.37629690000176,267.37629690000176,267.37629690000176,267.37629690000176,267.37629690000176,0.006561000001966022,267.37629690000176,True,-0.30972222222222223,-0.39861111111111114,1,0,0,ansOne,,,,,,,,,,,,,,,,002,2022-11-02_01h11.45.986,musicalMathTest,2022.2.4,59.89767081835093,
music\calm\vocals\Younger Then (90) by Allebasi.wav,younger then,calm,vocals,2,90,add,19,10,29,39,37,33,0,2,2,3,0,17,17,26,,,,,,,,,,,,,,,,,,,,,,,,,,,,,,,268.8616947999981,268.8616947999981,268.8616947999981,268.8616947999981,268.8616947999981,0.00654979999671923,268.8616947999981,True,-0.30324074074074076,-0.40370370370370373,1,0,0,ansOne,,,,,,,,,,,,,,,,002,2022-11-02_01h11.45.986,musicalMathTest,2022.2.4,59.89767081835093,
music\calm\vocals\Younger Then (90) by Allebasi.wav,younger then,calm,vocals,2,90,subtract,42,37,5,12,11,9,0,2,2,3,0,18,18,54,,,,,,,,,,,,,,,,,,,,,,,,,,,,,,,270.91717519999656,270.91717519999656,270.91717519999656,270.91717519999656,270.91717519999656,0.006686900000204332,270.91717519999656,True,-0.30324074074074076,-0.38842592592592595,1,0,0,ansOne,,,,,,,,,,,,,,,,002,2022-11-02_01h11.45.986,musicalMathTest,2022.2.4,59.89767081835093,
music\calm\vocals\Younger Then (90) by Allebasi.wav,younger then,calm,vocals,2,90,subtract,40,37,3,6,7,9,0,2,2,3,0,19,19,58,,,,,,,,,,,,,,,,,,,,,,,,,,,,,,,280.10621700000047,280.10621700000047,280.10621700000047,280.10621700000047,280.10621700000047,0.006905099995492492,280.10621700000047,True,-0.1050925925925926,-0.39861111111111114,1,0,0,ansTwo,,,,,,,,,,,,,,,,002,2022-11-02_01h11.45.986,musicalMathTest,2022.2.4,59.89767081835093,
music\calm\vocals\Younger Then (90) by Allebasi.wav,younger then,calm,vocals,2,90,add,40,39,79,85,82,84,0,2,2,3,0,20,20,15,,,,,,,,,,,,,,,,,,,,,,,,,,,,,,,281.84247190000315,281.84247190000315,281.84247190000315,281.84247190000315,281.84247190000315,0.0068721999996341765,281.84247190000315,True,-0.09675925925925925,-0.3972222222222222,1,0,0,ansTwo,,,,,,,,,,,,,,,,002,2022-11-02_01h11.45.986,musicalMathTest,2022.2.4,59.89767081835093,
music\calm\vocals\Younger Then (90) by Allebasi.wav,younger then,calm,vocals,2,90,multiply,5,17,85,92,89,92,0,2,2,3,0,21,21,73,,,,,,,,,,,,,,,,,,,,,,,,,,,,,,,283.85980310000014,283.85980310000014,283.85980310000014,283.85980310000014,283.85980310000014,0.006230799997865688,283.85980310000014,True,-0.29953703703703705,-0.40555555555555556,1,0,0,ansOne,,,,,,,,,,,,,,,,002,2022-11-02_01h11.45.986,musicalMathTest,2022.2.4,59.89767081835093,
music\calm\vocals\Younger Then (90) by Allebasi.wav,younger then,calm,vocals,2,90,add,37,19,56,61,62,57,0,2,2,3,0,22,22,7,,,,,,,,,,,,,,,,,,,,,,,,,,,,,,,289.6958104000005,289.6958104000005,289.6958104000005,289.6958104000005,289.6958104000005,0.009582999999111053,289.6958104000005,True,-0.31296296296296294,-0.38935185185185184,1,0,0,ansOne,,,,,,,,,,,,,,,,002,2022-11-02_01h11.45.986,musicalMathTest,2022.2.4,59.89767081835093,
music\calm\vocals\Younger Then (90) by Allebasi.wav,younger then,calm,vocals,2,90,add,25,23,48,49,54,58,0,2,2,3,0,23,23,20,,,,,,,,,,,,,,,,,,,,,,,,,,,,,,,294.8397327999992,294.8397327999992,294.8397327999992,294.8397327999992,294.8397327999992,0.006752000001142733,294.8397327999992,True,-0.0962962962962963,-0.4083333333333333,1,0,0,ansTwo,,,,,,,,,,,,,,,,002,2022-11-02_01h11.45.986,musicalMathTest,2022.2.4,59.89767081835093,
music\calm\vocals\Younger Then (90) by Allebasi.wav,younger then,calm,vocals,2,90,subtract,25,23,2,9,5,8,0,2,2,3,0,24,24,51,,,,,,,,,,,,,,,,,,,,,,,,,,,,,,,298.0742276000019,298.0742276000019,298.0742276000019,298.0742276000019,298.0742276000019,0.0055840999993961304,298.0742276000019,True,-0.3,-0.4060185185185185,1,0,0,ansOne,,,,,,,,,,,,,,,,002,2022-11-02_01h11.45.986,musicalMathTest,2022.2.4,59.89767081835093,
music\calm\vocals\Younger Then (90) by Allebasi.wav,younger then,calm,vocals,2,90,subtract,23,19,4,9,6,10,0,2,2,3,0,25,25,31,,,,,,,,,,,,,,,,,,,,,,,,,,,,,,,299.7755197000006,299.7755197000006,299.7755197000006,299.7755197000006,299.7755197000006,0.006473900000855792,299.7755197000006,True,0.10462962962962963,-0.39444444444444443,1,0,0,ansThree,,,,,,,,,,,,,,,,002,2022-11-02_01h11.45.986,musicalMathTest,2022.2.4,59.89767081835093,
music\calm\instrumentals\You and Me (90) (Instrumental) by Bridge City Revival.wav,you and me,calm,instrumental,2,90,multiply,10,21,210,215,220,224,0,3,3,2,0,0,0,81,,,,,,,,,,,,,,,,,,,,,,,,320.3831977000009,0.026508100003411528,0.16574074074074074,-0.25277777777777777,1,0,0,321.33439250000083,321.33439250000083,321.33439250000083,321.33439250000083,321.33439250000083,0.020965200004866347,321.33439250000083,True,0.09074074074074075,-0.4060185185185185,1,0,0,ansThree,315.3570187000005,,,,,,,,,,,,,,,002,2022-11-02_01h11.45.986,musicalMathTest,2022.2.4,59.89767081835093,
music\calm\instrumentals\You and Me (90) (Instrumental) by Bridge City Revival.wav,you and me,calm,instrumental,2,90,add,43,22,65,66,71,67,0,3,3,2,0,1,1,24,,,,,,,,,,,,,,,,,,,,,,,,,,,,,,,323.50162080000155,323.50162080000155,323.50162080000155,323.50162080000155,323.50162080000155,0.007070700004987884,323.50162080000155,True,-0.28194444444444444,-0.39490740740740743,1,0,0,ansOne,,,,,,,,,,,,,,,,002,2022-11-02_01h11.45.986,musicalMathTest,2022.2.4,59.89767081835093,
music\calm\instrumentals\You and Me (90) (Instrumental) by Bridge City Revival.wav,you and me,calm,instrumental,2,90,subtract,50,48,2,4,6,7,0,3,3,2,0,2,2,50,,,,,,,,,,,,,,,,,,,,,,,,,,,,,,,329.0870122999986,329.0870122999986,329.0870122999986,329.0870122999986,329.0870122999986,0.006203600001754239,329.0870122999986,True,0.09768518518518518,-0.4064814814814815,1,0,0,ansThree,,,,,,,,,,,,,,,,002,2022-11-02_01h11.45.986,musicalMathTest,2022.2.4,59.89767081835093,
music\calm\instrumentals\You and Me (90) (Instrumental) by Bridge City Revival.wav,you and me,calm,instrumental,2,90,multiply,10,18,180,188,190,194,0,3,3,2,0,3,3,96,,,,,,,,,,,,,,,,,,,,,,,,,,,,,,,331.1116408000016,331.1116408000016,331.1116408000016,331.1116408000016,331.1116408000016,0.008059400002821349,331.1116408000016,True,0.09861111111111111,-0.3976851851851852,1,0,0,ansThree,,,,,,,,,,,,,,,,002,2022-11-02_01h11.45.986,musicalMathTest,2022.2.4,59.89767081835093,
music\calm\instrumentals\You and Me (90) (Instrumental) by Bridge City Revival.wav,you and me,calm,instrumental,2,90,subtract,48,43,5,7,10,14,0,3,3,2,0,4,4,46,,,,,,,,,,,,,,,,,,,,,,,,,,,,,,,332.62626610000007,332.62626610000007,332.62626610000007,332.62626610000007,332.62626610000007,0.005838400000357069,332.62626610000007,True,-0.30416666666666664,-0.39675925925925926,1,0,0,ansOne,,,,,,,,,,,,,,,,002,2022-11-02_01h11.45.986,musicalMathTest,2022.2.4,59.89767081835093,
music\calm\instrumentals\You and Me (90) (Instrumental) by Bridge City Revival.wav,you and me,calm,instrumental,2,90,add,53,49,102,109,107,112,0,3,3,2,0,5,5,13,,,,,,,,,,,,,,,,,,,,,,,,,,,,,,,334.72923589999846,334.72923589999846,334.72923589999846,334.72923589999846,334.72923589999846,0.007165200004237704,334.72923589999846,True,-0.10925925925925926,-0.41064814814814815,1,0,0,ansTwo,,,,,,,,,,,,,,,,002,2022-11-02_01h11.45.986,musicalMathTest,2022.2.4,59.89767081835093,
music\calm\instrumentals\You and Me (90) (Instrumental) by Bridge City Revival.wav,you and me,calm,instrumental,2,90,add,44,43,87,93,97,101,0,3,3,2,0,6,6,5,,,,,,,,,,,,,,,,,,,,,,,,,,,,,,,341.70227899999736,341.70227899999736,341.70227899999736,341.70227899999736,341.70227899999736,0.00709610000194516,341.70227899999736,True,-0.30185185185185187,-0.4,1,0,0,ansOne,,,,,,,,,,,,,,,,002,2022-11-02_01h11.45.986,musicalMathTest,2022.2.4,59.89767081835093,
music\calm\instrumentals\You and Me (90) (Instrumental) by Bridge City Revival.wav,you and me,calm,instrumental,2,90,add,50,50,100,101,102,107,0,3,3,2,0,7,7,6,,,,,,,,,,,,,,,,,,,,,,,,,,,,,,,345.3728805999999,345.3728805999999,345.3728805999999,345.3728805999999,345.3728805999999,0.006766700003936421,345.3728805999999,True,-0.0875,-0.3972222222222222,1,0,0,ansTwo,,,,,,,,,,,,,,,,002,2022-11-02_01h11.45.986,musicalMathTest,2022.2.4,59.89767081835093,
music\calm\instrumentals\You and Me (90) (Instrumental) by Bridge City Revival.wav,you and me,calm,instrumental,2,90,add,50,50,100,101,110,106,0,3,3,2,0,8,8,3,,,,,,,,,,,,,,,,,,,,,,,,,,,,,,,347.0535697000014,347.0535697000014,347.0535697000014,347.0535697000014,347.0535697000014,0.01387040000554407,347.0535697000014,True,-0.09861111111111111,-0.39861111111111114,1,0,0,ansTwo,,,,,,,,,,,,,,,,002,2022-11-02_01h11.45.986,musicalMathTest,2022.2.4,59.89767081835093,
music\calm\instrumentals\You and Me (90) (Instrumental) by Bridge City Revival.wav,you and me,calm,instrumental,2,90,multiply,5,2,10,15,20,16,0,3,3,2,0,9,9,111,,,,,,,,,,,,,,,,,,,,,,,,,,,,,,,349.3110677000004,349.3110677000004,349.3110677000004,349.3110677000004,349.3110677000004,0.007333299996389542,349.3110677000004,True,0.1087962962962963,-0.40046296296296297,1,0,0,ansThree,,,,,,,,,,,,,,,,002,2022-11-02_01h11.45.986,musicalMathTest,2022.2.4,59.89767081835093,
music\calm\instrumentals\You and Me (90) (Instrumental) by Bridge City Revival.wav,you and me,calm,instrumental,2,90,multiply,21,10,210,213,214,216,0,3,3,2,0,10,10,69,,,,,,,,,,,,,,,,,,,,,,,,,,,,,,,351.628816299999,351.628816299999,351.628816299999,351.628816299999,351.628816299999,0.006759399999282323,351.628816299999,True,0.09074074074074075,-0.4115740740740741,1,0,0,ansThree,,,,,,,,,,,,,,,,002,2022-11-02_01h11.45.986,musicalMathTest,2022.2.4,59.89767081835093,
music\calm\instrumentals\You and Me (90) (Instrumental) by Bridge City Revival.wav,you and me,calm,instrumental,2,90,multiply,10,18,180,187,186,184,0,3,3,2,0,11,11,64,,,,,,,,,,,,,,,,,,,,,,,,,,,,,,,353.7325906999977,353.7325906999977,353.7325906999977,353.7325906999977,353.7325906999977,0.008092399999441113,353.7325906999977,True,0.10833333333333334,-0.3902777777777778,1,0,0,ansThree,,,,,,,,,,,,,,,,002,2022-11-02_01h11.45.986,musicalMathTest,2022.2.4,59.89767081835093,
music\calm\instrumentals\You and Me (90) (Instrumental) by Bridge City Revival.wav,you and me,calm,instrumental,2,90,multiply,18,10,180,184,181,185,0,3,3,2,0,12,12,76,,,,,,,,,,,,,,,,,,,,,,,,,,,,,,,355.43489569999656,355.43489569999656,355.43489569999656,355.43489569999656,355.43489569999656,0.020259900004020892,355.43489569999656,True,0.10601851851851851,-0.40555555555555556,1,0,0,ansThree,,,,,,,,,,,,,,,,002,2022-11-02_01h11.45.986,musicalMathTest,2022.2.4,59.89767081835093,
music\calm\instrumentals\You and Me (90) (Instrumental) by Bridge City Revival.wav,you and me,calm,instrumental,2,90,multiply,5,21,105,115,107,109,0,3,3,2,0,13,13,73,,,,,,,,,,,,,,,,,,,,,,,,,,,,,,,357.322219200003,357.322219200003,357.322219200003,357.322219200003,357.322219200003,0.00842969999939669,357.322219200003,True,0.10787037037037037,-0.40046296296296297,1,0,0,ansThree,,,,,,,,,,,,,,,,002,2022-11-02_01h11.45.986,musicalMathTest,2022.2.4,59.89767081835093,
music\calm\instrumentals\You and Me (90) (Instrumental) by Bridge City Revival.wav,you and me,calm,instrumental,2,90,multiply,18,5,90,93,100,98,0,3,3,2,0,14,14,100,,,,,,,,,,,,,,,,,,,,,,,,,,,,,,,363.95715019999625,363.95715019999625,363.95715019999625,363.95715019999625,363.95715019999625,0.006468500003393274,363.95715019999625,True,0.10694444444444444,-0.4041666666666667,1,0,0,ansThree,,,,,,,,,,,,,,,,002,2022-11-02_01h11.45.986,musicalMathTest,2022.2.4,59.89767081835093,
music\calm\instrumentals\You and Me (90) (Instrumental) by Bridge City Revival.wav,you and me,calm,instrumental,2,90,multiply,12,10,120,126,122,127,0,3,3,2,0,15,15,74,,,,,,,,,,,,,,,,,,,,,,,,,,,,,,,377.4880523999964,377.4880523999964,377.4880523999964,377.4880523999964,377.4880523999964,0.006803799995395821,377.4880523999964,True,-0.30416666666666664,-0.39351851851851855,1,0,0,ansOne,,,,,,,,,,,,,,,,002,2022-11-02_01h11.45.986,musicalMathTest,2022.2.4,59.89767081835093,
music\calm\instrumentals\You and Me (90) (Instrumental) by Bridge City Revival.wav,you and me,calm,instrumental,2,90,multiply,10,12,120,124,128,132,0,3,3,2,0,16,16,78,,,,,,,,,,,,,,,,,,,,,,,,,,,,,,,379.2382926999999,379.2382926999999,379.2382926999999,379.2382926999999,379.2382926999999,0.015430499996000435,379.2382926999999,True,-0.09351851851851851,-0.40694444444444444,1,0,0,ansTwo,,,,,,,,,,,,,,,,002,2022-11-02_01h11.45.986,musicalMathTest,2022.2.4,59.89767081835093,
music\calm\instrumentals\You and Me (90) (Instrumental) by Bridge City Revival.wav,you and me,calm,instrumental,2,90,multiply,21,5,105,107,109,113,0,3,3,2,0,17,17,85,,,,,,,,,,,,,,,,,,,,,,,,,,,,,,,381.8928308999966,381.8928308999966,381.8928308999966,381.8928308999966,381.8928308999966,0.005881599994609132,381.8928308999966,True,0.08703703703703704,-0.4027777777777778,1,0,0,ansThree,,,,,,,,,,,,,,,,002,2022-11-02_01h11.45.986,musicalMathTest,2022.2.4,59.89767081835093,
music\calm\instrumentals\You and Me (90) (Instrumental) by Bridge City Revival.wav,you and me,calm,instrumental,2,90,subtract,49,25,24,29,25,14,0,3,3,2,0,18,18,60,,,,,,,,,,,,,,,,,,,,,,,,,,,,,,,385.06484089999867,385.06484089999867,385.06484089999867,385.06484089999867,385.06484089999867,0.008486599996103905,385.06484089999867,True,-0.29583333333333334,-0.39675925925925926,1,0,0,ansOne,,,,,,,,,,,,,,,,002,2022-11-02_01h11.45.986,musicalMathTest,2022.2.4,59.89767081835093,
music\calm\instrumentals\You and Me (90) (Instrumental) by Bridge City Revival.wav,you and me,calm,instrumental,2,90,subtract,22,14,8,14,9,13,0,3,3,2,0,19,19,35,,,,,,,,,,,,,,,,,,,,,,,,,,,,,,,388.5183199000021,388.5183199000021,388.5183199000021,388.5183199000021,388.5183199000021,0.00888900000427384,388.5183199000021,True,-0.10462962962962963,-0.4083333333333333,1,0,0,ansTwo,,,,,,,,,,,,,,,,002,2022-11-02_01h11.45.986,musicalMathTest,2022.2.4,59.89767081835093,
music\calm\instrumentals\You and Me (90) (Instrumental) by Bridge City Revival.wav,you and me,calm,instrumental,2,90,multiply,2,10,20,23,21,25,0,3,3,2,0,20,20,107,,,,,,,,,,,,,,,,,,,,,,,,,,,,,,,393.0881479000018,393.0881479000018,393.0881479000018,393.0881479000018,393.0881479000018,0.007869900000514463,393.0881479000018,True,-0.2953703703703704,-0.4027777777777778,1,0,0,ansOne,,,,,,,,,,,,,,,,002,2022-11-02_01h11.45.986,musicalMathTest,2022.2.4,59.89767081835093,
music\calm\instrumentals\You and Me (90) (Instrumental) by Bridge City Revival.wav,you and me,calm,instrumental,2,90,subtract,48,48,0,6,8,4,0,3,3,2,0,21,21,58,,,,,,,,,,,,,,,,,,,,,,,,,,,,,,,394.7061010999969,394.7061010999969,394.7061010999969,394.7061010999969,394.7061010999969,0.007311100001970772,394.7061010999969,True,0.09768518518518518,-0.40879629629629627,1,0,0,ansThree,,,,,,,,,,,,,,,,002,2022-11-02_01h11.45.986,musicalMathTest,2022.2.4,59.89767081835093,
music\calm\instrumentals\You and Me (90) (Instrumental) by Bridge City Revival.wav,you and me,calm,instrumental,2,90,multiply,2,18,36,37,41,45,0,3,3,2,0,22,22,88,,,,,,,,,,,,,,,,,,,,,,,,,,,,,,,396.331236500002,396.331236500002,396.331236500002,396.331236500002,396.331236500002,0.008560900001612026,396.331236500002,True,0.08703703703703704,-0.4060185185185185,1,0,0,ansThree,,,,,,,,,,,,,,,,002,2022-11-02_01h11.45.986,musicalMathTest,2022.2.4,59.89767081835093,
music\calm\instrumentals\You and Me (90) (Instrumental) by Bridge City Revival.wav,you and me,calm,instrumental,2,90,subtract,43,22,21,27,28,32,0,3,3,2,0,23,23,55,,,,,,,,,,,,,,,,,,,,,,,,,,,,,,,405.8339519000001,405.8339519000001,405.8339519000001,405.8339519000001,405.8339519000001,0.0070983000041451305,405.8339519000001,True,0.08611111111111111,-0.40694444444444444,1,0,0,ansThree,,,,,,,,,,,,,,,,002,2022-11-02_01h11.45.986,musicalMathTest,2022.2.4,59.89767081835093,
music\calm\instrumentals\Brand New Feelings (90) (Instrumental) by Land of Legs.wav,brand new feelings,calm,instrumental,2,90,subtract,52,18,34,36,37,24,0,4,4,6,0,0,0,51,,,,,,,,,,,,,,,,,,,,,,,,417.74258499999996,0.021035400000982918,0.14537037037037037,-0.15555555555555556,1,0,0,418.7687423000025,418.7687423000025,418.7687423000025,418.7687423000025,418.7687423000025,0.020443200002773665,418.7687423000025,False,-0.10462962962962963,-0.4097222222222222,1,0,0,ansTwo,412.72216910000134,,,,,,,,,,,,,,,002,2022-11-02_01h11.45.986,musicalMathTest,2022.2.4,59.89767081835093,
music\calm\instrumentals\Brand New Feelings (90) (Instrumental) by Land of Legs.wav,brand new feelings,calm,instrumental,2,90,add,53,52,105,109,108,111,0,4,4,6,0,1,1,4,,,,,,,,,,,,,,,,,,,,,,,,,,,,,,,429.7925344000032,429.7925344000032,429.7925344000032,429.7925344000032,429.7925344000032,0.006511300001875497,429.7925344000032,True,-0.09259259259259259,-0.39814814814814814,1,0,0,ansTwo,,,,,,,,,,,,,,,,002,2022-11-02_01h11.45.986,musicalMathTest,2022.2.4,59.89767081835093,
music\calm\instrumentals\Brand New Feelings (90) (Instrumental) by Land of Legs.wav,brand new feelings,calm,instrumental,2,90,multiply,8,10,80,90,86,82,0,4,4,6,0,2,2,90,,,,,,,,,,,,,,,,,,,,,,,,,,,,,,,433.4604952000009,433.4604952000009,433.4604952000009,433.4604952000009,433.4604952000009,0.006444300001021475,433.4604952000009,True,-0.10972222222222222,-0.40046296296296297,1,0,0,ansTwo,,,,,,,,,,,,,,,,002,2022-11-02_01h11.45.986,musicalMathTest,2022.2.4,59.89767081835093,
music\calm\instrumentals\Brand New Feelings (90) (Instrumental) by Land of Legs.wav,brand new feelings,calm,instrumental,2,90,multiply,16,10,160,164,166,168,0,4,4,6,0,3,3,109,,,,,,,,,,,,,,,,,,,,,,,,,,,,,,,434.8424653999973,434.8424653999973,434.8424653999973,434.8424653999973,434.8424653999973,0.016453299998829607,434.8424653999973,True,-0.2898148148148148,-0.38333333333333336,1,0,0,ansOne,,,,,,,,,,,,,,,,002,2022-11-02_01h11.45.986,musicalMathTest,2022.2.4,59.89767081835093,
music\calm\instrumentals\Brand New Feelings (90) (Instrumental) by Land of Legs.wav,brand new feelings,calm,instrumental,2,90,multiply,5,5,25,30,27,30,0,4,4,6,0,4,4,84,,,,,,,,,,,,,,,,,,,,,,,,,,,,,,,438.1477922999984,438.1477922999984,438.1477922999984,438.1477922999984,438.1477922999984,0.005651200001011603,438.1477922999984,True,-0.2962962962962963,-0.39490740740740743,1,0,0,ansOne,,,,,,,,,,,,,,,,002,2022-11-02_01h11.45.986,musicalMathTest,2022.2.4,59.89767081835093,
music\calm\instrumentals\Brand New Feelings (90) (Instrumental) by Land of Legs.wav,brand new feelings,calm,instrumental,2,90,subtract,40,35,5,10,9,13,0,4,4,6,0,5,5,37,,,,,,,,,,,,,,,,,,,,,,,,,,,,,,,439.5383698000005,439.5383698000005,439.5383698000005,439.5383698000005,439.5383698000005,0.010312300000805408,439.5383698000005,True,0.1050925925925926,-0.40324074074074073,1,0,0,ansThree,,,,,,,,,,,,,,,,002,2022-11-02_01h11.45.986,musicalMathTest,2022.2.4,59.89767081835093,
music\calm\instrumentals\Brand New Feelings (90) (Instrumental) by Land of Legs.wav,brand new feelings,calm,instrumental,2,90,multiply,5,10,50,57,59,51,0,4,4,6,0,6,6,76,,,,,,,,,,,,,,,,,,,,,,,,,,,,,,,441.53771979999874,441.53771979999874,441.53771979999874,441.53771979999874,441.53771979999874,0.006332699995255098,441.53771979999874,True,-0.11666666666666667,-0.40324074074074073,1,0,0,ansTwo,,,,,,,,,,,,,,,,002,2022-11-02_01h11.45.986,musicalMathTest,2022.2.4,59.89767081835093,
music\calm\instrumentals\Brand New Feelings (90) (Instrumental) by Land of Legs.wav,brand new feelings,calm,instrumental,2,90,add,57,52,109,116,115,110,0,4,4,6,0,7,7,14,,,,,,,,,,,,,,,,,,,,,,,,,,,,,,,443.1319488000008,443.1319488000008,443.1319488000008,443.1319488000008,443.1319488000008,0.04857889999402687,443.1319488000008,True,-0.09259259259259259,-0.40185185185185185,1,0,0,ansTwo,,,,,,,,,,,,,,,,002,2022-11-02_01h11.45.986,musicalMathTest,2022.2.4,59.89767081835093,
music\calm\instrumentals\Brand New Feelings (90) (Instrumental) by Land of Legs.wav,brand new feelings,calm,instrumental,2,90,add,35,17,52,53,59,53,0,4,4,6,0,8,8,25,,,,,,,,,,,,,,,,,,,,,,,,,,,,,,,446.988657599999,446.988657599999,446.988657599999,446.988657599999,446.988657599999,0.015466099997865967,446.988657599999,True,-0.29583333333333334,-0.3972222222222222,1,0,0,ansOne,,,,,,,,,,,,,,,,002,2022-11-02_01h11.45.986,musicalMathTest,2022.2.4,59.89767081835093,
music\calm\instrumentals\Brand New Feelings (90) (Instrumental) by Land of Legs.wav,brand new feelings,calm,instrumental,2,90,add,48,45,93,103,98,94,0,4,4,6,0,9,9,7,,,,,,,,,,,,,,,,,,,,,,,,,,,,,,,452.7315473999988,452.7315473999988,452.7315473999988,452.7315473999988,452.7315473999988,0.006739399999787565,452.7315473999988,True,-0.10648148148148148,-0.3976851851851852,1,0,0,ansTwo,,,,,,,,,,,,,,,,002,2022-11-02_01h11.45.986,musicalMathTest,2022.2.4,59.89767081835093,
music\calm\instrumentals\Brand New Feelings (90) (Instrumental) by Land of Legs.wav,brand new feelings,calm,instrumental,2,90,multiply,10,5,50,55,51,52,0,4,4,6,0,10,10,64,,,,,,,,,,,,,,,,,,,,,,,,,,,,,,,459.537891400003,459.537891400003,459.537891400003,459.537891400003,459.537891400003,0.005265699997835327,459.537891400003,True,-0.29444444444444445,-0.4013888888888889,1,0,0,ansOne,,,,,,,,,,,,,,,,002,2022-11-02_01h11.45.986,musicalMathTest,2022.2.4,59.89767081835093,
music\calm\instrumentals\Brand New Feelings (90) (Instrumental) by Land of Legs.wav,brand new feelings,calm,instrumental,2,90,subtract,29,20,9,12,17,12,0,4,4,6,0,11,11,33,,,,,,,,,,,,,,,,,,,,,,,,,,,,,,,461.3114216999966,461.3114216999966,461.3114216999966,461.3114216999966,461.3114216999966,0.006920799998624716,461.3114216999966,True,-0.29814814814814816,-0.40370370370370373,1,0,0,ansOne,,,,,,,,,,,,,,,,002,2022-11-02_01h11.45.986,musicalMathTest,2022.2.4,59.89767081835093,
music\calm\instrumentals\Brand New Feelings (90) (Instrumental) by Land of Legs.wav,brand new feelings,calm,instrumental,2,90,subtract,48,45,3,7,6,10,0,4,4,6,0,12,12,38,,,,,,,,,,,,,,,,,,,,,,,,,,,,,,,463.79067059999943,463.79067059999943,463.79067059999943,463.79067059999943,463.79067059999943,0.005400600006396417,463.79067059999943,True,-0.09675925925925925,-0.4027777777777778,1,0,0,ansTwo,,,,,,,,,,,,,,,,002,2022-11-02_01h11.45.986,musicalMathTest,2022.2.4,59.89767081835093,
music\calm\instrumentals\Brand New Feelings (90) (Instrumental) by Land of Legs.wav,brand new feelings,calm,instrumental,2,90,add,45,45,90,97,92,94,0,4,4,6,0,13,13,0,,,,,,,,,,,,,,,,,,,,,,,,,,,,,,,466.8982038000031,466.8982038000031,466.8982038000031,466.8982038000031,466.8982038000031,0.009012399998027831,466.8982038000031,True,0.09583333333333334,-0.40324074074074073,1,0,0,ansThree,,,,,,,,,,,,,,,,002,2022-11-02_01h11.45.986,musicalMathTest,2022.2.4,59.89767081835093,
music\calm\instrumentals\Brand New Feelings (90) (Instrumental) by Land of Legs.wav,brand new feelings,calm,instrumental,2,90,multiply,5,8,40,44,46,50,0,4,4,6,0,14,14,70,,,,,,,,,,,,,,,,,,,,,,,,,,,,,,,470.65023199999996,470.65023199999996,470.65023199999996,470.65023199999996,470.65023199999996,0.007965400000102818,470.65023199999996,True,0.11064814814814815,-0.3962962962962963,1,0,0,ansThree,,,,,,,,,,,,,,,,002,2022-11-02_01h11.45.986,musicalMathTest,2022.2.4,59.89767081835093,
music\calm\instrumentals\Brand New Feelings (90) (Instrumental) by Land of Legs.wav,brand new feelings,calm,instrumental,2,90,add,36,35,71,81,77,81,0,4,4,6,0,15,15,9,,,,,,,,,,,,,,,,,,,,,,,,,,,,,,,472.5216367999965,472.5216367999965,472.5216367999965,472.5216367999965,472.5216367999965,0.02276739999797428,472.5216367999965,True,-0.09490740740740741,-0.39675925925925926,1,0,0,ansTwo,,,,,,,,,,,,,,,,002,2022-11-02_01h11.45.986,musicalMathTest,2022.2.4,59.89767081835093,
music\calm\instrumentals\Brand New Feelings (90) (Instrumental) by Land of Legs.wav,brand new feelings,calm,instrumental,2,90,subtract,36,35,1,4,5,8,0,4,4,6,0,16,16,34,,,,,,,,,,,,,,,,,,,,,,,,,,,,,,,482.148560200003,482.148560200003,482.148560200003,482.148560200003,482.148560200003,0.00960779999877559,482.148560200003,True,-0.30416666666666664,-0.39861111111111114,1,0,0,ansOne,,,,,,,,,,,,,,,,002,2022-11-02_01h11.45.986,musicalMathTest,2022.2.4,59.89767081835093,
music\calm\instrumentals\Brand New Feelings (90) (Instrumental) by Land of Legs.wav,brand new feelings,calm,instrumental,2,90,subtract,24,20,4,5,9,7,0,4,4,6,0,17,17,46,,,,,,,,,,,,,,,,,,,,,,,,,,,,,,,484.09645360000286,484.09645360000286,484.09645360000286,484.09645360000286,484.09645360000286,0.00762879999820143,484.09645360000286,True,-0.10231481481481482,-0.39861111111111114,1,0,0,ansTwo,,,,,,,,,,,,,,,,002,2022-11-02_01h11.45.986,musicalMathTest,2022.2.4,59.89767081835093,
music\calm\instrumentals\Brand New Feelings (90) (Instrumental) by Land of Legs.wav,brand new feelings,calm,instrumental,2,90,add,57,52,109,117,113,117,0,4,4,6,0,18,18,11,,,,,,,,,,,,,,,,,,,,,,,,,,,,,,,485.51511949999986,485.51511949999986,485.51511949999986,485.51511949999986,485.51511949999986,0.006984899999224581,485.51511949999986,True,-0.09074074074074075,-0.38935185185185184,1,0,0,ansTwo,,,,,,,,,,,,,,,,002,2022-11-02_01h11.45.986,musicalMathTest,2022.2.4,59.89767081835093,
music\calm\instrumentals\Brand New Feelings (90) (Instrumental) by Land of Legs.wav,brand new feelings,calm,instrumental,2,90,multiply,5,16,80,84,90,85,0,4,4,6,0,19,19,113,,,,,,,,,,,,,,,,,,,,,,,,,,,,,,,488.61857579999923,488.61857579999923,488.61857579999923,488.61857579999923,488.61857579999923,0.006517399997392204,488.61857579999923,True,-0.10092592592592593,-0.4027777777777778,1,0,0,ansTwo,,,,,,,,,,,,,,,,002,2022-11-02_01h11.45.986,musicalMathTest,2022.2.4,59.89767081835093,
music\calm\instrumentals\Brand New Feelings (90) (Instrumental) by Land of Legs.wav,brand new feelings,calm,instrumental,2,90,subtract,30,29,1,5,7,5,0,4,4,6,0,20,20,49,,,,,,,,,,,,,,,,,,,,,,,,,,,,,,,495.09066229999735,495.09066229999735,495.09066229999735,495.09066229999735,495.09066229999735,0.006192200002260506,495.09066229999735,True,-0.29444444444444445,-0.40555555555555556,1,0,0,ansOne,,,,,,,,,,,,,,,,002,2022-11-02_01h11.45.986,musicalMathTest,2022.2.4,59.89767081835093,
music\calm\instrumentals\Brand New Feelings (90) (Instrumental) by Land of Legs.wav,brand new feelings,calm,instrumental,2,90,multiply,10,16,160,167,170,164,0,4,4,6,0,21,21,105,,,,,,,,,,,,,,,,,,,,,,,,,,,,,,,496.86091029999807,496.86091029999807,496.86091029999807,496.86091029999807,496.86091029999807,0.008371099997020792,496.86091029999807,True,-0.09074074074074075,-0.39351851851851855,1,0,0,ansTwo,,,,,,,,,,,,,,,,002,2022-11-02_01h11.45.986,musicalMathTest,2022.2.4,59.89767081835093,
music\calm\instrumentals\Brand New Feelings (90) (Instrumental) by Land of Legs.wav,brand new feelings,calm,instrumental,2,90,add,35,18,53,54,61,55,0,4,4,6,0,22,22,28,,,,,,,,,,,,,,,,,,,,,,,,,,,,,,,498.4634877999997,498.4634877999997,498.4634877999997,498.4634877999997,498.4634877999997,0.006757299997843802,498.4634877999997,True,-0.10185185185185185,-0.3990740740740741,1,0,0,ansTwo,,,,,,,,,,,,,,,,002,2022-11-02_01h11.45.986,musicalMathTest,2022.2.4,59.89767081835093,
music\calm\instrumentals\Brand New Feelings (90) (Instrumental) by Land of Legs.wav,brand new feelings,calm,instrumental,2,90,multiply,16,10,160,170,164,170,0,4,4,6,0,23,23,77,,,,,,,,,,,,,,,,,,,,,,,,,,,,,,,504.8176267000017,504.8176267000017,504.8176267000017,504.8176267000017,504.8176267000017,0.007230800001707394,504.8176267000017,True,-0.3055555555555556,-0.399537037037037,1,0,0,ansOne,,,,,,,,,,,,,,,,002,2022-11-02_01h11.45.986,musicalMathTest,2022.2.4,59.89767081835093,
music\calm\instrumentals\Brand New Feelings (90) (Instrumental) by Land of Legs.wav,brand new feelings,calm,instrumental,2,90,multiply,10,16,160,167,162,164,0,4,4,6,0,24,24,97,,,,,,,,,,,,,,,,,,,,,,,,,,,,,,,506.5708653999973,506.5708653999973,506.5708653999973,506.5708653999973,506.5708653999973,0.007690899998124223,506.5708653999973,True,-0.30277777777777776,-0.39537037037037037,1,0,0,ansOne,,,,,,,,,,,,,,,,002,2022-11-02_01h11.45.986,musicalMathTest,2022.2.4,59.89767081835093,
music\calm\instrumentals\Brand New Feelings (90) (Instrumental) by Land of Legs.wav,brand new feelings,calm,instrumental,2,90,multiply,10,9,90,97,94,97,0,4,4,6,0,25,25,95,,,,,,,,,,,,,,,,,,,,,,,,,,,,,,,508.15286370000103,508.15286370000103,508.15286370000103,508.15286370000103,508.15286370000103,0.0069044999981997535,508.15286370000103,True,0.10694444444444444,-0.40046296296296297,1,0,0,ansThree,,,,,,,,,,,,,,,,002,2022-11-02_01h11.45.986,musicalMathTest,2022.2.4,59.89767081835093,
music\active\vocals\Someone Like You (90) (Chorus Vocals) by Poison Beaches.wav,someone like you,active,vocals,2,90,multiply,2,18,36,37,41,45,0,5,5,1,0,0,0,88,,,,,,,,,,,,,,,,,,,,,,,,514.9524177999992,0.01554759999999078,0.1439814814814815,-0.2861111111111111,1,0,0,516.1339649000001,516.1339649000001,516.1339649000001,516.1339649000001,516.1339649000001,0.020516499993391335,516.1339649000001,True,-0.29583333333333334,-0.39490740740740743,1,0,0,ansOne,509.9377134000024,,,,,,,,,,,,,,,002,2022-11-02_01h11.45.986,musicalMathTest,2022.2.4,59.89767081835093,
music\active\vocals\Someone Like You (90) (Chorus Vocals) by Poison Beaches.wav,someone like you,active,vocals,2,90,multiply,10,21,210,216,215,219,0,5,5,1,0,1,1,65,,,,,,,,,,,,,,,,,,,,,,,,,,,,,,,524.9190874999986,524.9190874999986,524.9190874999986,524.9190874999986,524.9190874999986,0.0064292000024579465,524.9190874999986,True,0.10555555555555556,-0.3990740740740741,1,0,0,ansThree,,,,,,,,,,,,,,,,002,2022-11-02_01h11.45.986,musicalMathTest,2022.2.4,59.89767081835093,
music\active\vocals\Someone Like You (90) (Chorus Vocals) by Poison Beaches.wav,someone like you,active,vocals,2,90,multiply,5,12,60,68,67,70,0,5,5,1,0,2,2,110,,,,,,,,,,,,,,,,,,,,,,,,,,,,,,,526.820595600002,526.820595600002,526.820595600002,526.820595600002,526.820595600002,0.00616019999870332,526.820595600002,True,-0.30462962962962964,-0.4,1,0,0,ansOne,,,,,,,,,,,,,,,,002,2022-11-02_01h11.45.986,musicalMathTest,2022.2.4,59.89767081835093,
music\active\vocals\Someone Like You (90) (Chorus Vocals) by Poison Beaches.wav,someone like you,active,vocals,2,90,add,50,25,75,80,77,85,0,5,5,1,0,3,3,25,,,,,,,,,,,,,,,,,,,,,,,,,,,,,,,533.1196434000012,533.1196434000012,533.1196434000012,533.1196434000012,533.1196434000012,0.01152439999714261,533.1196434000012,True,-0.10740740740740741,-0.4013888888888889,1,0,0,ansTwo,,,,,,,,,,,,,,,,002,2022-11-02_01h11.45.986,musicalMathTest,2022.2.4,59.89767081835093,
music\active\vocals\Someone Like You (90) (Chorus Vocals) by Poison Beaches.wav,someone like you,active,vocals,2,90,multiply,12,10,120,126,122,127,0,5,5,1,0,4,4,74,,,,,,,,,,,,,,,,,,,,,,,,,,,,,,,534.631695600001,534.631695600001,534.631695600001,534.631695600001,534.631695600001,0.007936999994853977,534.631695600001,True,-0.2875,-0.39490740740740743,1,0,0,ansOne,,,,,,,,,,,,,,,,002,2022-11-02_01h11.45.986,musicalMathTest,2022.2.4,59.89767081835093,
music\active\vocals\Someone Like You (90) (Chorus Vocals) by Poison Beaches.wav,someone like you,active,vocals,2,90,subtract,49,28,21,24,11,29,0,5,5,1,0,5,5,57,,,,,,,,,,,,,,,,,,,,,,,,,,,,,,,536.2496373000031,536.2496373000031,536.2496373000031,536.2496373000031,536.2496373000031,0.007049499996355735,536.2496373000031,True,0.09444444444444444,-0.40925925925925927,1,0,0,ansThree,,,,,,,,,,,,,,,,002,2022-11-02_01h11.45.986,musicalMathTest,2022.2.4,59.89767081835093,
music\active\vocals\Someone Like You (90) (Chorus Vocals) by Poison Beaches.wav,someone like you,active,vocals,2,90,subtract,54,49,5,12,7,6,0,5,5,1,0,6,6,31,,,,,,,,,,,,,,,,,,,,,,,,,,,,,,,542.8318343999999,542.8318343999999,542.8318343999999,542.8318343999999,542.8318343999999,0.013025100000959355,542.8318343999999,True,0.10555555555555556,-0.4050925925925926,1,0,0,ansThree,,,,,,,,,,,,,,,,002,2022-11-02_01h11.45.986,musicalMathTest,2022.2.4,59.89767081835093,
music\active\vocals\Someone Like You (90) (Chorus Vocals) by Poison Beaches.wav,someone like you,active,vocals,2,90,subtract,48,43,5,8,10,11,0,5,5,1,0,7,7,39,,,,,,,,,,,,,,,,,,,,,,,,,,,,,,,548.3176617999998,548.3176617999998,548.3176617999998,548.3176617999998,548.3176617999998,0.011067000006732997,548.3176617999998,True,-0.09398148148148149,-0.39537037037037037,1,0,0,ansTwo,,,,,,,,,,,,,,,,002,2022-11-02_01h11.45.986,musicalMathTest,2022.2.4,59.89767081835093,
music\active\vocals\Someone Like You (90) (Chorus Vocals) by Poison Beaches.wav,someone like you,active,vocals,2,90,add,25,14,39,42,44,40,0,5,5,1,0,8,8,1,,,,,,,,,,,,,,,,,,,,,,,,,,,,,,,551.4643593000001,551.4643593000001,551.4643593000001,551.4643593000001,551.4643593000001,0.0065893000064534135,551.4643593000001,True,-0.09212962962962963,-0.38981481481481484,1,0,0,ansTwo,,,,,,,,,,,,,,,,002,2022-11-02_01h11.45.986,musicalMathTest,2022.2.4,59.89767081835093,
music\active\vocals\Someone Like You (90) (Chorus Vocals) by Poison Beaches.wav,someone like you,active,vocals,2,90,subtract,28,14,14,20,22,26,0,5,5,1,0,9,9,45,,,,,,,,,,,,,,,,,,,,,,,,,,,,,,,554.0159619999977,554.0159619999977,554.0159619999977,554.0159619999977,554.0159619999977,0.0063563000003341585,554.0159619999977,True,0.10324074074074074,-0.3958333333333333,1,0,0,ansThree,,,,,,,,,,,,,,,,002,2022-11-02_01h11.45.986,musicalMathTest,2022.2.4,59.89767081835093,
music\active\vocals\Someone Like You (90) (Chorus Vocals) by Poison Beaches.wav,someone like you,active,vocals,2,90,subtract,22,22,0,5,4,5,0,5,5,1,0,10,10,51,,,,,,,,,,,,,,,,,,,,,,,,,,,,,,,556.9850616999975,556.9850616999975,556.9850616999975,556.9850616999975,556.9850616999975,0.006322300003375858,556.9850616999975,True,-0.10092592592592593,-0.3962962962962963,1,0,0,ansTwo,,,,,,,,,,,,,,,,002,2022-11-02_01h11.45.986,musicalMathTest,2022.2.4,59.89767081835093,
music\active\vocals\Someone Like You (90) (Chorus Vocals) by Poison Beaches.wav,someone like you,active,vocals,2,90,multiply,10,21,210,215,213,217,0,5,5,1,0,11,11,105,,,,,,,,,,,,,,,,,,,,,,,,,,,,,,,558.3051988000007,558.3051988000007,558.3051988000007,558.3051988000007,558.3051988000007,0.00593970000045374,558.3051988000007,True,-0.3143518518518518,-0.38935185185185184,1,0,0,ansOne,,,,,,,,,,,,,,,,002,2022-11-02_01h11.45.986,musicalMathTest,2022.2.4,59.89767081835093,
music\active\vocals\Someone Like You (90) (Chorus Vocals) by Poison Beaches.wav,someone like you,active,vocals,2,90,multiply,5,18,90,92,91,94,0,5,5,1,0,12,12,112,,,,,,,,,,,,,,,,,,,,,,,,,,,,,,,559.9389377999978,559.9389377999978,559.9389377999978,559.9389377999978,559.9389377999978,0.006468600004154723,559.9389377999978,True,-0.3060185185185185,-0.38935185185185184,1,0,0,ansOne,,,,,,,,,,,,,,,,002,2022-11-02_01h11.45.986,musicalMathTest,2022.2.4,59.89767081835093,
music\active\vocals\Someone Like You (90) (Chorus Vocals) by Poison Beaches.wav,someone like you,active,vocals,2,90,multiply,21,2,42,45,44,45,0,5,5,1,0,13,13,117,,,,,,,,,,,,,,,,,,,,,,,,,,,,,,,565.4447518000015,565.4447518000015,565.4447518000015,565.4447518000015,565.4447518000015,0.005997699998260941,565.4447518000015,True,0.1050925925925926,-0.4009259259259259,1,0,0,ansThree,,,,,,,,,,,,,,,,002,2022-11-02_01h11.45.986,musicalMathTest,2022.2.4,59.89767081835093,
music\active\vocals\Someone Like You (90) (Chorus Vocals) by Poison Beaches.wav,someone like you,active,vocals,2,90,multiply,10,18,180,183,184,187,0,5,5,1,0,14,14,80,,,,,,,,,,,,,,,,,,,,,,,,,,,,,,,572.1687281999984,572.1687281999984,572.1687281999984,572.1687281999984,572.1687281999984,0.006598200001462828,572.1687281999984,True,-0.1050925925925926,-0.4060185185185185,1,0,0,ansTwo,,,,,,,,,,,,,,,,002,2022-11-02_01h11.45.986,musicalMathTest,2022.2.4,59.89767081835093,
music\active\vocals\Someone Like You (90) (Chorus Vocals) by Poison Beaches.wav,someone like you,active,vocals,2,90,multiply,18,10,180,182,188,183,0,5,5,1,0,15,15,92,,,,,,,,,,,,,,,,,,,,,,,,,,,,,,,573.6718649999966,573.6718649999966,573.6718649999966,573.6718649999966,573.6718649999966,0.008571400001528673,573.6718649999966,True,0.12129629629629629,-0.4074074074074074,1,0,0,ansThree,,,,,,,,,,,,,,,,002,2022-11-02_01h11.45.986,musicalMathTest,2022.2.4,59.89767081835093,
music\active\vocals\Someone Like You (90) (Chorus Vocals) by Poison Beaches.wav,someone like you,active,vocals,2,90,add,54,49,103,105,109,107,0,5,5,1,0,16,16,0,,,,,,,,,,,,,,,,,,,,,,,,,,,,,,,575.4392662999962,575.4392662999962,575.4392662999962,575.4392662999962,575.4392662999962,0.006800199997087475,575.4392662999962,True,-0.10185185185185185,-0.39861111111111114,1,0,0,ansTwo,,,,,,,,,,,,,,,,002,2022-11-02_01h11.45.986,musicalMathTest,2022.2.4,59.89767081835093,
music\active\vocals\Someone Like You (90) (Chorus Vocals) by Poison Beaches.wav,someone like you,active,vocals,2,90,add,44,43,87,93,97,101,0,5,5,1,0,17,17,5,,,,,,,,,,,,,,,,,,,,,,,,,,,,,,,578.7427568999992,578.7427568999992,578.7427568999992,578.7427568999992,578.7427568999992,0.007009500004642177,578.7427568999992,True,-0.10694444444444444,-0.4083333333333333,1,0,0,ansTwo,,,,,,,,,,,,,,,,002,2022-11-02_01h11.45.986,musicalMathTest,2022.2.4,59.89767081835093,
music\active\vocals\Someone Like You (90) (Chorus Vocals) by Poison Beaches.wav,someone like you,active,vocals,2,90,multiply,10,18,180,188,190,194,0,5,5,1,0,18,18,96,,,,,,,,,,,,,,,,,,,,,,,,,,,,,,,581.6116438999961,581.6116438999961,581.6116438999961,581.6116438999961,581.6116438999961,0.0066550000046845526,581.6116438999961,True,-0.3,-0.3972222222222222,1,0,0,ansOne,,,,,,,,,,,,,,,,002,2022-11-02_01h11.45.986,musicalMathTest,2022.2.4,59.89767081835093,
music\active\vocals\Someone Like You (90) (Chorus Vocals) by Poison Beaches.wav,someone like you,active,vocals,2,90,add,53,49,102,109,107,112,0,5,5,1,0,19,19,13,,,,,,,,,,,,,,,,,,,,,,,,,,,,,,,583.4130202000015,583.4130202000015,583.4130202000015,583.4130202000015,583.4130202000015,0.006345199995848816,583.4130202000015,True,-0.2796296296296296,-0.40925925925925927,1,0,0,ansOne,,,,,,,,,,,,,,,,002,2022-11-02_01h11.45.986,musicalMathTest,2022.2.4,59.89767081835093,
music\active\vocals\Someone Like You (90) (Chorus Vocals) by Poison Beaches.wav,someone like you,active,vocals,2,90,subtract,48,43,5,7,10,14,0,5,5,1,0,20,20,46,,,,,,,,,,,,,,,,,,,,,,,,,,,,,,,586.9836059000008,586.9836059000008,586.9836059000008,586.9836059000008,586.9836059000008,0.00662680000095861,586.9836059000008,True,-0.29583333333333334,-0.3990740740740741,1,0,0,ansOne,,,,,,,,,,,,,,,,002,2022-11-02_01h11.45.986,musicalMathTest,2022.2.4,59.89767081835093,
music\active\vocals\Someone Like You (90) (Chorus Vocals) by Poison Beaches.wav,someone like you,active,vocals,2,90,subtract,26,25,1,7,9,7,0,5,5,1,0,21,21,48,,,,,,,,,,,,,,,,,,,,,,,,,,,,,,,592.1724957999977,592.1724957999977,592.1724957999977,592.1724957999977,592.1724957999977,0.0065047000025515445,592.1724957999977,True,-0.09722222222222222,-0.4115740740740741,1,0,0,ansTwo,,,,,,,,,,,,,,,,002,2022-11-02_01h11.45.986,musicalMathTest,2022.2.4,59.89767081835093,
music\active\vocals\Someone Like You (90) (Chorus Vocals) by Poison Beaches.wav,someone like you,active,vocals,2,90,subtract,50,50,0,5,7,2,0,5,5,1,0,22,22,34,,,,,,,,,,,,,,,,,,,,,,,,,,,,,,,594.307258300003,594.307258300003,594.307258300003,594.307258300003,594.307258300003,0.006376499994075857,594.307258300003,True,-0.09675925925925925,-0.40324074074074073,1,0,0,ansTwo,,,,,,,,,,,,,,,,002,2022-11-02_01h11.45.986,musicalMathTest,2022.2.4,59.89767081835093,
music\active\vocals\Someone Like You (90) (Chorus Vocals) by Poison Beaches.wav,someone like you,active,vocals,2,90,multiply,2,10,20,22,23,30,0,5,5,1,0,23,23,75,,,,,,,,,,,,,,,,,,,,,,,,,,,,,,,595.6923365999974,595.6923365999974,595.6923365999974,595.6923365999974,595.6923365999974,0.006330800002615433,595.6923365999974,True,-0.3074074074074074,-0.39861111111111114,1,0,0,ansOne,,,,,,,,,,,,,,,,002,2022-11-02_01h11.45.986,musicalMathTest,2022.2.4,59.89767081835093,
music\active\vocals\Someone Like You (90) (Chorus Vocals) by Poison Beaches.wav,someone like you,active,vocals,2,90,subtract,43,22,21,27,28,32,0,5,5,1,0,24,24,55,,,,,,,,,,,,,,,,,,,,,,,,,,,,,,,597.0995946999974,597.0995946999974,597.0995946999974,597.0995946999974,597.0995946999974,0.01163290000113193,597.0995946999974,True,-0.1037037037037037,-0.3962962962962963,1,0,0,ansTwo,,,,,,,,,,,,,,,,002,2022-11-02_01h11.45.986,musicalMathTest,2022.2.4,59.89767081835093,
music\active\instrumentals\Like This (90) (Instrumental) by MUNNYCAT.wav,like this,active,instrumental,2,90,multiply,10,10,100,103,107,101,0,6,6,7,0,0,0,62,,,,,,,,,,,,,,,,,,,,,,,,612.6692657000021,0.016368600001442246,0.07592592592592592,-0.3175925925925926,1,0,0,613.6460731999978,613.6460731999978,613.6460731999978,613.6460731999978,613.6460731999978,0.019734900000912603,613.6460731999978,True,-0.09722222222222222,-0.4009259259259259,1,0,0,ansTwo,607.6530778000015,,,,,,,,,,,,,,,002,2022-11-02_01h11.45.986,musicalMathTest,2022.2.4,59.89767081835093,
music\active\instrumentals\Like This (90) (Instrumental) by MUNNYCAT.wav,like this,active,instrumental,2,90,multiply,20,10,200,208,201,208,0,6,6,7,0,1,1,67,,,,,,,,,,,,,,,,,,,,,,,,,,,,,,,615.3094978000008,615.3094978000008,615.3094978000008,615.3094978000008,615.3094978000008,0.016308199999912176,615.3094978000008,True,-0.09907407407407408,-0.4162037037037037,1,0,0,ansTwo,,,,,,,,,,,,,,,,002,2022-11-02_01h11.45.986,musicalMathTest,2022.2.4,59.89767081835093,
music\active\instrumentals\Like This (90) (Instrumental) by MUNNYCAT.wav,like this,active,instrumental,2,90,multiply,5,7,35,38,40,37,0,6,6,7,0,2,2,112,,,,,,,,,,,,,,,,,,,,,,,,,,,,,,,617.2458436000015,617.2458436000015,617.2458436000015,617.2458436000015,617.2458436000015,0.017849900003056973,617.2458436000015,True,-0.09490740740740741,-0.4013888888888889,1,0,0,ansTwo,,,,,,,,,,,,,,,,002,2022-11-02_01h11.45.986,musicalMathTest,2022.2.4,59.89767081835093,
music\active\instrumentals\Like This (90) (Instrumental) by MUNNYCAT.wav,like this,active,instrumental,2,90,subtract,47,12,35,36,42,40,0,6,6,7,0,3,3,31,,,,,,,,,,,,,,,,,,,,,,,,,,,,,,,618.9314808999989,618.9314808999989,618.9314808999989,618.9314808999989,618.9314808999989,0.005962000002909917,618.9314808999989,True,-0.29814814814814816,-0.387037037037037,1,0,0,ansOne,,,,,,,,,,,,,,,,002,2022-11-02_01h11.45.986,musicalMathTest,2022.2.4,59.89767081835093,
music\active\instrumentals\Like This (90) (Instrumental) by MUNNYCAT.wav,like this,active,instrumental,2,90,multiply,10,7,70,72,75,72,0,6,6,7,0,4,4,80,,,,,,,,,,,,,,,,,,,,,,,,,,,,,,,624.253744499998,624.253744499998,624.253744499998,624.253744499998,624.253744499998,0.005899399999179877,624.253744499998,True,-0.29953703703703705,-0.40046296296296297,1,0,0,ansOne,,,,,,,,,,,,,,,,002,2022-11-02_01h11.45.986,musicalMathTest,2022.2.4,59.89767081835093,
music\active\instrumentals\Like This (90) (Instrumental) by MUNNYCAT.wav,like this,active,instrumental,2,90,subtract,60,59,1,5,7,5,0,6,6,7,0,5,5,34,,,,,,,,,,,,,,,,,,,,,,,,,,,,,,,625.8557040000014,625.8557040000014,625.8557040000014,625.8557040000014,625.8557040000014,0.006488099999842234,625.8557040000014,True,0.10462962962962963,-0.399537037037037,1,0,0,ansThree,,,,,,,,,,,,,,,,002,2022-11-02_01h11.45.986,musicalMathTest,2022.2.4,59.89767081835093,
music\active\instrumentals\Like This (90) (Instrumental) by MUNNYCAT.wav,like this,active,instrumental,2,90,multiply,7,2,14,18,20,18,0,6,6,7,0,6,6,116,,,,,,,,,,,,,,,,,,,,,,,,,,,,,,,627.5384645000013,627.5384645000013,627.5384645000013,627.5384645000013,627.5384645000013,0.01672149999649264,627.5384645000013,True,0.11157407407407408,-0.41203703703703703,1,0,0,ansThree,,,,,,,,,,,,,,,,002,2022-11-02_01h11.45.986,musicalMathTest,2022.2.4,59.89767081835093,
music\active\instrumentals\Like This (90) (Instrumental) by MUNNYCAT.wav,like this,active,instrumental,2,90,multiply,7,10,70,74,72,74,0,6,6,7,0,7,7,76,,,,,,,,,,,,,,,,,,,,,,,,,,,,,,,629.4469546999971,629.4469546999971,629.4469546999971,629.4469546999971,629.4469546999971,0.007482300003175624,629.4469546999971,True,0.10046296296296296,-0.40694444444444444,1,0,0,ansThree,,,,,,,,,,,,,,,,002,2022-11-02_01h11.45.986,musicalMathTest,2022.2.4,59.89767081835093,
music\active\instrumentals\Like This (90) (Instrumental) by MUNNYCAT.wav,like this,active,instrumental,2,90,add,52,51,103,106,108,104,0,6,6,7,0,8,8,27,,,,,,,,,,,,,,,,,,,,,,,,,,,,,,,631.2307175000024,631.2307175000024,631.2307175000024,631.2307175000024,631.2307175000024,0.00774509999610018,631.2307175000024,True,-0.2935185185185185,-0.3976851851851852,1,0,0,ansOne,,,,,,,,,,,,,,,,002,2022-11-02_01h11.45.986,musicalMathTest,2022.2.4,59.89767081835093,
music\active\instrumentals\Like This (90) (Instrumental) by MUNNYCAT.wav,like this,active,instrumental,2,90,subtract,61,59,2,5,6,8,0,6,6,7,0,9,9,43,,,,,,,,,,,,,,,,,,,,,,,,,,,,,,,633.2044319999986,633.2044319999986,633.2044319999986,633.2044319999986,633.2044319999986,0.008779099996900186,633.2044319999986,True,-0.300462962962963,-0.4023148148148148,1,0,0,ansOne,,,,,,,,,,,,,,,,002,2022-11-02_01h11.45.986,musicalMathTest,2022.2.4,59.89767081835093,
music\active\instrumentals\Like This (90) (Instrumental) by MUNNYCAT.wav,like this,active,instrumental,2,90,multiply,13,5,65,71,73,66,0,6,6,7,0,10,10,85,,,,,,,,,,,,,,,,,,,,,,,,,,,,,,,635.6887604000003,635.6887604000003,635.6887604000003,635.6887604000003,635.6887604000003,0.008400399994570762,635.6887604000003,True,-0.10092592592592593,-0.4009259259259259,1,0,0,ansTwo,,,,,,,,,,,,,,,,002,2022-11-02_01h11.45.986,musicalMathTest,2022.2.4,59.89767081835093,
music\active\instrumentals\Like This (90) (Instrumental) by MUNNYCAT.wav,like this,active,instrumental,2,90,add,48,47,95,96,98,105,0,6,6,7,0,11,11,24,,,,,,,,,,,,,,,,,,,,,,,,,,,,,,,642.6411998999974,642.6411998999974,642.6411998999974,642.6411998999974,642.6411998999974,0.007193999997980427,642.6411998999974,True,-0.09259259259259259,-0.3939814814814815,1,0,0,ansTwo,,,,,,,,,,,,,,,,002,2022-11-02_01h11.45.986,musicalMathTest,2022.2.4,59.89767081835093,
music\active\instrumentals\Like This (90) (Instrumental) by MUNNYCAT.wav,like this,active,instrumental,2,90,add,47,33,80,83,81,87,0,6,6,7,0,12,12,4,,,,,,,,,,,,,,,,,,,,,,,,,,,,,,,652.416481100001,652.416481100001,652.416481100001,652.416481100001,652.416481100001,0.006804500000725966,652.416481100001,True,-0.09861111111111111,-0.39675925925925926,1,0,0,ansTwo,,,,,,,,,,,,,,,,002,2022-11-02_01h11.45.986,musicalMathTest,2022.2.4,59.89767081835093,
music\active\instrumentals\Like This (90) (Instrumental) by MUNNYCAT.wav,like this,active,instrumental,2,90,add,50,46,96,98,101,99,0,6,6,7,0,13,13,18,,,,,,,,,,,,,,,,,,,,,,,,,,,,,,,657.1552916,657.1552916,657.1552916,657.1552916,657.1552916,0.006782500000554137,657.1552916,True,-0.2953703703703704,-0.40324074074074073,1,0,0,ansOne,,,,,,,,,,,,,,,,002,2022-11-02_01h11.45.986,musicalMathTest,2022.2.4,59.89767081835093,
music\active\instrumentals\Like This (90) (Instrumental) by MUNNYCAT.wav,like this,active,instrumental,2,90,multiply,20,10,200,208,206,208,0,6,6,7,0,14,14,75,,,,,,,,,,,,,,,,,,,,,,,,,,,,,,,659.1563523000004,659.1563523000004,659.1563523000004,659.1563523000004,659.1563523000004,0.01830599999811966,659.1563523000004,True,0.10416666666666667,-0.3875,1,0,0,ansThree,,,,,,,,,,,,,,,,002,2022-11-02_01h11.45.986,musicalMathTest,2022.2.4,59.89767081835093,
music\active\instrumentals\Like This (90) (Instrumental) by MUNNYCAT.wav,like this,active,instrumental,2,90,subtract,52,51,1,8,7,9,0,6,6,7,0,15,15,58,,,,,,,,,,,,,,,,,,,,,,,,,,,,,,,661.024780599997,661.024780599997,661.024780599997,661.024780599997,661.024780599997,0.006251100006920751,661.024780599997,True,-0.1087962962962963,-0.40694444444444444,1,0,0,ansTwo,,,,,,,,,,,,,,,,002,2022-11-02_01h11.45.986,musicalMathTest,2022.2.4,59.89767081835093,
music\active\instrumentals\Like This (90) (Instrumental) by MUNNYCAT.wav,like this,active,instrumental,2,90,multiply,10,13,130,135,137,140,0,6,6,7,0,16,16,105,,,,,,,,,,,,,,,,,,,,,,,,,,,,,,,662.727530199998,662.727530199998,662.727530199998,662.727530199998,662.727530199998,0.006218099995749071,662.727530199998,True,-0.10462962962962963,-0.40370370370370373,1,0,0,ansTwo,,,,,,,,,,,,,,,,002,2022-11-02_01h11.45.986,musicalMathTest,2022.2.4,59.89767081835093,
music\active\instrumentals\Like This (90) (Instrumental) by MUNNYCAT.wav,like this,active,instrumental,2,90,subtract,41,12,29,37,39,32,0,6,6,7,0,17,17,44,,,,,,,,,,,,,,,,,,,,,,,,,,,,,,,664.3280239000014,664.3280239000014,664.3280239000014,664.3280239000014,664.3280239000014,0.006702900005620904,664.3280239000014,True,-0.29768518518518516,-0.40925925925925927,1,0,0,ansOne,,,,,,,,,,,,,,,,002,2022-11-02_01h11.45.986,musicalMathTest,2022.2.4,59.89767081835093,
music\active\instrumentals\Like This (90) (Instrumental) by MUNNYCAT.wav,like this,active,instrumental,2,90,subtract,59,41,18,25,26,22,0,6,6,7,0,18,18,56,,,,,,,,,,,,,,,,,,,,,,,,,,,,,,,670.3512408000024,670.3512408000024,670.3512408000024,670.3512408000024,670.3512408000024,0.006874800004879944,670.3512408000024,True,-0.3087962962962963,-0.40185185185185185,1,0,0,ansOne,,,,,,,,,,,,,,,,002,2022-11-02_01h11.45.986,musicalMathTest,2022.2.4,59.89767081835093,
music\active\instrumentals\Like This (90) (Instrumental) by MUNNYCAT.wav,like this,active,instrumental,2,90,subtract,59,47,12,2,17,21,0,6,6,7,0,19,19,59,,,,,,,,,,,,,,,,,,,,,,,,,,,,,,,674.3740907999963,674.3740907999963,674.3740907999963,674.3740907999963,674.3740907999963,0.00803260000247974,674.3740907999963,True,-0.30648148148148147,-0.4,1,0,0,ansOne,,,,,,,,,,,,,,,,002,2022-11-02_01h11.45.986,musicalMathTest,2022.2.4,59.89767081835093,
music\active\instrumentals\Like This (90) (Instrumental) by MUNNYCAT.wav,like this,active,instrumental,2,90,multiply,7,5,35,37,43,41,0,6,6,7,0,20,20,100,,,,,,,,,,,,,,,,,,,,,,,,,,,,,,,680.1290351999996,680.1290351999996,680.1290351999996,680.1290351999996,680.1290351999996,0.007894399997894652,680.1290351999996,True,0.11203703703703703,-0.38842592592592595,1,0,0,ansThree,,,,,,,,,,,,,,,,002,2022-11-02_01h11.45.986,musicalMathTest,2022.2.4,59.89767081835093,
music\active\instrumentals\Like This (90) (Instrumental) by MUNNYCAT.wav,like this,active,instrumental,2,90,subtract,50,46,4,9,8,9,0,6,6,7,0,21,21,49,,,,,,,,,,,,,,,,,,,,,,,,,,,,,,,682.1468784000026,682.1468784000026,682.1468784000026,682.1468784000026,682.1468784000026,0.006474399997387081,682.1468784000026,True,-0.2916666666666667,-0.39351851851851855,1,0,0,ansOne,,,,,,,,,,,,,,,,002,2022-11-02_01h11.45.986,musicalMathTest,2022.2.4,59.89767081835093,
music\active\instrumentals\Like This (90) (Instrumental) by MUNNYCAT.wav,like this,active,instrumental,2,90,subtract,46,41,5,11,6,10,0,6,6,7,0,22,22,48,,,,,,,,,,,,,,,,,,,,,,,,,,,,,,,684.2665955999983,684.2665955999983,684.2665955999983,684.2665955999983,684.2665955999983,0.007620600001246203,684.2665955999983,True,-0.10231481481481482,-0.4097222222222222,1,0,0,ansTwo,,,,,,,,,,,,,,,,002,2022-11-02_01h11.45.986,musicalMathTest,2022.2.4,59.89767081835093,
music\active\instrumentals\Like This (90) (Instrumental) by MUNNYCAT.wav,like this,active,instrumental,2,90,multiply,10,10,100,105,104,108,0,6,6,7,0,23,23,78,,,,,,,,,,,,,,,,,,,,,,,,,,,,,,,686.3675646999982,686.3675646999982,686.3675646999982,686.3675646999982,686.3675646999982,0.006221299998287577,686.3675646999982,True,0.10462962962962963,-0.39861111111111114,1,0,0,ansThree,,,,,,,,,,,,,,,,002,2022-11-02_01h11.45.986,musicalMathTest,2022.2.4,59.89767081835093,
music\active\instrumentals\Like This (90) (Instrumental) by MUNNYCAT.wav,like this,active,instrumental,2,90,multiply,10,5,50,51,60,64,0,6,6,7,0,24,24,98,,,,,,,,,,,,,,,,,,,,,,,,,,,,,,,687.9528972999979,687.9528972999979,687.9528972999979,687.9528972999979,687.9528972999979,0.006911999997100793,687.9528972999979,True,0.10231481481481482,-0.4013888888888889,1,0,0,ansThree,,,,,,,,,,,,,,,,002,2022-11-02_01h11.45.986,musicalMathTest,2022.2.4,59.89767081835093,
music\active\instrumentals\Like This (90) (Instrumental) by MUNNYCAT.wav,like this,active,instrumental,2,90,multiply,7,5,35,39,43,36,0,6,6,7,0,25,25,84,,,,,,,,,,,,,,,,,,,,,,,,,,,,,,,690.4878181000022,690.4878181000022,690.4878181000022,690.4878181000022,690.4878181000022,0.006300000000919681,690.4878181000022,True,0.08703703703703704,-0.399537037037037,1,0,0,ansThree,,,,,,,,,,,,,,,,002,2022-11-02_01h11.45.986,musicalMathTest,2022.2.4,59.89767081835093,
music\active\instrumentals\Like This (90) (Instrumental) by MUNNYCAT.wav,like this,active,instrumental,2,90,multiply,10,10,100,102,108,106,0,6,6,7,0,26,26,106,,,,,,,,,,,,,,,,,,,,,,,,,,,,,,,692.474331999998,692.474331999998,692.474331999998,692.474331999998,692.474331999998,0.007254500000271946,692.474331999998,True,-0.09583333333333334,-0.39305555555555555,1,0,0,ansTwo,,,,,,,,,,,,,,,,002,2022-11-02_01h11.45.986,musicalMathTest,2022.2.4,59.89767081835093,
music\active\instrumentals\Like This (90) (Instrumental) by MUNNYCAT.wav,like this,active,instrumental,2,90,multiply,10,7,70,80,77,80,0,6,6,7,0,27,27,64,,,,,,,,,,,,,,,,,,,,,,,,,,,,,,,693.7076052999982,693.7076052999982,693.7076052999982,693.7076052999982,693.7076052999982,0.006548499994096346,693.7076052999982,True,-0.3111111111111111,-0.40185185185185185,1,0,0,ansOne,,,,,,,,,,,,,,,,002,2022-11-02_01h11.45.986,musicalMathTest,2022.2.4,59.89767081835093,
music\active\instrumentals\Like This (90) (Instrumental) by MUNNYCAT.wav,like this,active,instrumental,2,90,subtract,59,46,13,20,19,18,0,6,6,7,0,28,28,53,,,,,,,,,,,,,,,,,,,,,,,,,,,,,,,695.3102893999967,695.3102893999967,695.3102893999967,695.3102893999967,695.3102893999967,0.006677799996396061,695.3102893999967,True,-0.3060185185185185,-0.40925925925925927,1,0,0,ansOne,,,,,,,,,,,,,,,,002,2022-11-02_01h11.45.986,musicalMathTest,2022.2.4,59.89767081835093,
music\silence.wav,silent,silent,silent,2,90,add,42,41,83,85,90,91,0,7,7,9,0,0,0,29,,,,,,,,,,,,,,,,,,,,,,,,722.252290700002,0.021820000001753215,0.021296296296296296,-0.24259259259259258,1,0,0,723.0320999999967,723.0320999999967,723.0320999999967,723.0320999999967,723.0320999999967,0.01672849999886239,723.0320999999967,True,-0.29583333333333334,-0.39675925925925926,1,0,0,ansOne,717.230513100003,,,,,,,,,,,,,,,002,2022-11-02_01h11.45.986,musicalMathTest,2022.2.4,59.89767081835093,
music\silence.wav,silent,silent,silent,2,90,subtract,59,47,12,2,17,21,0,7,7,9,0,1,1,59,,,,,,,,,,,,,,,,,,,,,,,,,,,,,,,725.5065699999977,725.5065699999977,725.5065699999977,725.5065699999977,725.5065699999977,0.006824399999459274,725.5065699999977,True,-0.08981481481481482,-0.399537037037037,1,0,0,ansTwo,,,,,,,,,,,,,,,,002,2022-11-02_01h11.45.986,musicalMathTest,2022.2.4,59.89767081835093,
music\silence.wav,silent,silent,silent,2,90,multiply,5,13,65,70,73,71,0,7,7,9,0,2,2,113,,,,,,,,,,,,,,,,,,,,,,,,,,,,,,,731.824053999997,731.824053999997,731.824053999997,731.824053999997,731.824053999997,0.014922199996362906,731.824053999997,True,-0.3060185185185185,-0.3976851851851852,1,0,0,ansOne,,,,,,,,,,,,,,,,002,2022-11-02_01h11.45.986,musicalMathTest,2022.2.4,59.89767081835093,
music\silence.wav,silent,silent,silent,2,90,multiply,7,5,35,39,43,36,0,7,7,9,0,3,3,84,,,,,,,,,,,,,,,,,,,,,,,,,,,,,,,738.0855691999968,738.0855691999968,738.0855691999968,738.0855691999968,738.0855691999968,0.016349800003808923,738.0855691999968,True,-0.0875,-0.3962962962962963,1,0,0,ansTwo,,,,,,,,,,,,,,,,002,2022-11-02_01h11.45.986,musicalMathTest,2022.2.4,59.89767081835093,
music\silence.wav,silent,silent,silent,2,90,multiply,5,7,35,38,40,37,0,7,7,9,0,4,4,112,,,,,,,,,,,,,,,,,,,,,,,,,,,,,,,739.4769342,739.4769342,739.4769342,739.4769342,739.4769342,0.008560599999327678,739.4769342,True,-0.30462962962962964,-0.4009259259259259,1,0,0,ansOne,,,,,,,,,,,,,,,,002,2022-11-02_01h11.45.986,musicalMathTest,2022.2.4,59.89767081835093,
music\silence.wav,silent,silent,silent,2,90,multiply,13,10,130,131,140,131,0,7,7,9,0,5,5,77,,,,,,,,,,,,,,,,,,,,,,,,,,,,,,,741.4884114000015,741.4884114000015,741.4884114000015,741.4884114000015,741.4884114000015,0.006378199999744538,741.4884114000015,True,-0.29398148148148145,-0.4046296296296296,1,0,0,ansOne,,,,,,,,,,,,,,,,002,2022-11-02_01h11.45.986,musicalMathTest,2022.2.4,59.89767081835093,
music\silence.wav,silent,silent,silent,2,90,subtract,46,41,5,11,6,10,0,7,7,9,0,6,6,48,,,,,,,,,,,,,,,,,,,,,,,,,,,,,,,743.1232767999973,743.1232767999973,743.1232767999973,743.1232767999973,743.1232767999973,0.016223599996010307,743.1232767999973,True,-0.30416666666666664,-0.39861111111111114,1,0,0,ansOne,,,,,,,,,,,,,,,,002,2022-11-02_01h11.45.986,musicalMathTest,2022.2.4,59.89767081835093,
music\silence.wav,silent,silent,silent,2,90,multiply,10,10,100,101,105,106,0,7,7,9,0,7,7,94,,,,,,,,,,,,,,,,,,,,,,,,,,,,,,,745.0095905999988,745.0095905999988,745.0095905999988,745.0095905999988,745.0095905999988,0.006513699998322409,745.0095905999988,True,-0.08935185185185185,-0.3972222222222222,1,0,0,ansTwo,,,,,,,,,,,,,,,,002,2022-11-02_01h11.45.986,musicalMathTest,2022.2.4,59.89767081835093,
music\silence.wav,silent,silent,silent,2,90,multiply,20,2,40,45,50,54,0,7,7,9,0,8,8,115,,,,,,,,,,,,,,,,,,,,,,,,,,,,,,,746.2009603999977,746.2009603999977,746.2009603999977,746.2009603999977,746.2009603999977,0.012406100002408493,746.2009603999977,True,-0.09768518518518518,-0.399537037037037,1,0,0,ansTwo,,,,,,,,,,,,,,,,002,2022-11-02_01h11.45.986,musicalMathTest,2022.2.4,59.89767081835093,
music\silence.wav,silent,silent,silent,2,90,subtract,41,33,8,16,12,16,0,7,7,9,0,9,9,32,,,,,,,,,,,,,,,,,,,,,,,,,,,,,,,748.6328203000012,748.6328203000012,748.6328203000012,748.6328203000012,748.6328203000012,0.007528400004957803,748.6328203000012,True,-0.300462962962963,-0.4,1,0,0,ansOne,,,,,,,,,,,,,,,,002,2022-11-02_01h11.45.986,musicalMathTest,2022.2.4,59.89767081835093,
music\silence.wav,silent,silent,silent,2,90,subtract,63,59,4,9,8,11,0,7,7,9,0,10,10,37,,,,,,,,,,,,,,,,,,,,,,,,,,,,,,,759.5245635999963,759.5245635999963,759.5245635999963,759.5245635999963,759.5245635999963,0.006894699996337295,759.5245635999963,True,-0.1,-0.3958333333333333,1,0,0,ansTwo,,,,,,,,,,,,,,,,002,2022-11-02_01h11.45.986,musicalMathTest,2022.2.4,59.89767081835093,
music\silence.wav,silent,silent,silent,2,90,add,47,12,59,63,67,64,0,7,7,9,0,11,11,0,,,,,,,,,,,,,,,,,,,,,,,,,,,,,,,764.3643633999964,764.3643633999964,764.3643633999964,764.3643633999964,764.3643633999964,0.007489000003261026,764.3643633999964,True,0.08981481481481482,-0.39537037037037037,1,0,0,ansThree,,,,,,,,,,,,,,,,002,2022-11-02_01h11.45.986,musicalMathTest,2022.2.4,59.89767081835093,
music\silence.wav,silent,silent,silent,2,90,add,46,12,58,66,61,59,0,7,7,9,0,12,12,10,,,,,,,,,,,,,,,,,,,,,,,,,,,,,,,768.0206056000025,768.0206056000025,768.0206056000025,768.0206056000025,768.0206056000025,0.021943300002021715,768.0206056000025,True,-0.11064814814814815,-0.39490740740740743,1,0,0,ansTwo,,,,,,,,,,,,,,,,002,2022-11-02_01h11.45.986,musicalMathTest,2022.2.4,59.89767081835093,
music\silence.wav,silent,silent,silent,2,90,subtract,46,12,34,38,24,42,0,7,7,9,0,13,13,41,,,,,,,,,,,,,,,,,,,,,,,,,,,,,,,775.8076030000011,775.8076030000011,775.8076030000011,775.8076030000011,775.8076030000011,0.006677599994873162,775.8076030000011,True,-0.10648148148148148,-0.4060185185185185,1,0,0,ansTwo,,,,,,,,,,,,,,,,002,2022-11-02_01h11.45.986,musicalMathTest,2022.2.4,59.89767081835093,
music\silence.wav,silent,silent,silent,2,90,subtract,49,47,2,5,7,11,0,7,7,9,0,14,14,47,,,,,,,,,,,,,,,,,,,,,,,,,,,,,,,780.8796036999993,780.8796036999993,780.8796036999993,780.8796036999993,780.8796036999993,0.007025200000498444,780.8796036999993,True,0.09814814814814815,-0.41435185185185186,1,0,0,ansThree,,,,,,,,,,,,,,,,002,2022-11-02_01h11.45.986,musicalMathTest,2022.2.4,59.89767081835093,
music\silence.wav,silent,silent,silent,2,90,multiply,7,10,70,73,75,74,0,7,7,9,0,15,15,108,,,,,,,,,,,,,,,,,,,,,,,,,,,,,,,783.5190132999996,783.5190132999996,783.5190132999996,783.5190132999996,783.5190132999996,0.007094900000083726,783.5190132999996,True,-0.30648148148148147,-0.4027777777777778,1,0,0,ansOne,,,,,,,,,,,,,,,,002,2022-11-02_01h11.45.986,musicalMathTest,2022.2.4,59.89767081835093,
music\silence.wav,silent,silent,silent,2,90,multiply,10,10,100,104,101,103,0,7,7,9,0,16,16,90,,,,,,,,,,,,,,,,,,,,,,,,,,,,,,,784.949635500001,784.949635500001,784.949635500001,784.949635500001,784.949635500001,0.0065190000022994354,784.949635500001,True,-0.09953703703703703,-0.40694444444444444,1,0,0,ansTwo,,,,,,,,,,,,,,,,002,2022-11-02_01h11.45.986,musicalMathTest,2022.2.4,59.89767081835093,
music\silence.wav,silent,silent,silent,2,90,add,46,41,87,91,89,93,0,7,7,9,0,17,17,17,,,,,,,,,,,,,,,,,,,,,,,,,,,,,,,786.3373763999989,786.3373763999989,786.3373763999989,786.3373763999989,786.3373763999989,0.006703599996399134,786.3373763999989,True,-0.1,-0.39351851851851855,1,0,0,ansTwo,,,,,,,,,,,,,,,,002,2022-11-02_01h11.45.986,musicalMathTest,2022.2.4,59.89767081835093,
music\silence.wav,silent,silent,silent,2,90,multiply,5,20,100,103,102,101,0,7,7,9,0,18,18,71,,,,,,,,,,,,,,,,,,,,,,,,,,,,,,,788.1690086000017,788.1690086000017,788.1690086000017,788.1690086000017,788.1690086000017,0.006545099997310899,788.1690086000017,True,-0.10185185185185185,-0.38935185185185184,1,0,0,ansTwo,,,,,,,,,,,,,,,,002,2022-11-02_01h11.45.986,musicalMathTest,2022.2.4,59.89767081835093,
music\silence.wav,silent,silent,silent,2,90,add,51,34,85,92,88,86,0,7,7,9,0,19,19,15,,,,,,,,,,,,,,,,,,,,,,,,,,,,,,,789.9898457000018,789.9898457000018,789.9898457000018,789.9898457000018,789.9898457000018,0.006292099998972844,789.9898457000018,True,0.09398148148148149,-0.3990740740740741,1,0,0,ansThree,,,,,,,,,,,,,,,,002,2022-11-02_01h11.45.986,musicalMathTest,2022.2.4,59.89767081835093,
music\silence.wav,silent,silent,silent,2,90,add,52,51,103,104,107,108,0,7,7,9,0,20,20,23,,,,,,,,,,,,,,,,,,,,,,,,,,,,,,,792.8917760999975,792.8917760999975,792.8917760999975,792.8917760999975,792.8917760999975,0.008092999996733852,792.8917760999975,True,0.11481481481481481,-0.3990740740740741,1,0,0,ansThree,,,,,,,,,,,,,,,,002,2022-11-02_01h11.45.986,musicalMathTest,2022.2.4,59.89767081835093,
music\silence.wav,silent,silent,silent,2,90,multiply,13,10,130,132,133,137,0,7,7,9,0,21,21,69,,,,,,,,,,,,,,,,,,,,,,,,,,,,,,,795.4455745000014,795.4455745000014,795.4455745000014,795.4455745000014,795.4455745000014,0.006119499994383659,795.4455745000014,True,-0.27685185185185185,-0.3907407407407407,1,0,0,ansOne,,,,,,,,,,,,,,,,002,2022-11-02_01h11.45.986,musicalMathTest,2022.2.4,59.89767081835093,
music\silence.wav,silent,silent,silent,2,90,multiply,2,13,26,27,29,36,0,7,7,9,0,22,22,89,,,,,,,,,,,,,,,,,,,,,,,,,,,,,,,797.1459009000027,797.1459009000027,797.1459009000027,797.1459009000027,797.1459009000027,0.0069953999991412275,797.1459009000027,True,-0.09861111111111111,-0.40046296296296297,1,0,0,ansTwo,,,,,,,,,,,,,,,,002,2022-11-02_01h11.45.986,musicalMathTest,2022.2.4,59.89767081835093,
music\silence.wav,silent,silent,silent,2,90,subtract,46,34,12,2,15,13,0,7,7,9,0,23,23,33,,,,,,,,,,,,,,,,,,,,,,,,,,,,,,,801.7185255000004,801.7185255000004,801.7185255000004,801.7185255000004,801.7185255000004,0.006369299997459166,801.7185255000004,True,-0.10324074074074074,-0.3907407407407407,1,0,0,ansTwo,,,,,,,,,,,,,,,,002,2022-11-02_01h11.45.986,musicalMathTest,2022.2.4,59.89767081835093,
music\silence.wav,silent,silent,silent,2,90,subtract,51,47,4,12,7,11,0,7,7,9,0,24,24,51,,,,,,,,,,,,,,,,,,,,,,,,,,,,,,,804.7265753999964,804.7265753999964,804.7265753999964,804.7265753999964,804.7265753999964,0.01139839999814285,804.7265753999964,True,-0.3023148148148148,-0.3958333333333333,1,0,0,ansOne,,,,,,,,,,,,,,,,002,2022-11-02_01h11.45.986,musicalMathTest,2022.2.4,59.89767081835093,
music\silence.wav,silent,silent,silent,2,90,subtract,61,59,2,5,6,8,0,7,7,9,0,25,25,43,,,,,,,,,,,,,,,,,,,,,,,,,,,,,,,809.3581233000004,809.3581233000004,809.3581233000004,809.3581233000004,809.3581233000004,0.006422499995096587,809.3581233000004,True,-0.3013888888888889,-0.39814814814814814,1,0,0,ansOne,,,,,,,,,,,,,,,,002,2022-11-02_01h11.45.986,musicalMathTest,2022.2.4,59.89767081835093,
music\silence.wav,silent,silent,silent,2,90,subtract,59,51,8,10,13,16,0,7,7,9,0,26,26,50,,,,,,,,,,,,,,,,,,,,,,,,,,,,,,,811.578646199996,811.578646199996,811.578646199996,811.578646199996,811.578646199996,0.007944999997562263,811.578646199996,True,-0.10185185185185185,-0.4009259259259259,1,0,0,ansTwo,,,,,,,,,,,,,,,,002,2022-11-02_01h11.45.986,musicalMathTest,2022.2.4,59.89767081835093,
music\active\vocals\Believe It (90) by Ty Magenta.wav,believe it,active,vocals,2,90,multiply,11,2,22,29,26,27,0,8,8,5,0,0,0,117,,,,,,,,,,,,,,,,,,,,,,,,819.7450116999971,0.015151100000366569,0.07222222222222222,-0.2759259259259259,1,0,0,820.5403361999997,820.5403361999997,820.5403361999997,820.5403361999997,820.5403361999997,0.0173508999941987,820.5403361999997,True,-0.10833333333333334,-0.40185185185185185,1,0,0,ansTwo,814.7288985999985,,,,,,,,,,,,,,,002,2022-11-02_01h11.45.986,musicalMathTest,2022.2.4,59.89767081835093,
music\active\vocals\Believe It (90) by Ty Magenta.wav,believe it,active,vocals,2,90,add,44,21,65,68,75,72,0,8,8,5,0,1,1,24,,,,,,,,,,,,,,,,,,,,,,,,,,,,,,,822.3230865000005,822.3230865000005,822.3230865000005,822.3230865000005,822.3230865000005,0.007065800004056655,822.3230865000005,True,-0.29305555555555557,-0.3976851851851852,1,0,0,ansOne,,,,,,,,,,,,,,,,002,2022-11-02_01h11.45.986,musicalMathTest,2022.2.4,59.89767081835093,
music\active\vocals\Believe It (90) by Ty Magenta.wav,believe it,active,vocals,2,90,multiply,19,2,38,43,41,46,0,8,8,5,0,2,2,116,,,,,,,,,,,,,,,,,,,,,,,,,,,,,,,825.038512500003,825.038512500003,825.038512500003,825.038512500003,825.038512500003,0.005641800002194941,825.038512500003,True,-0.1050925925925926,-0.4013888888888889,1,0,0,ansTwo,,,,,,,,,,,,,,,,002,2022-11-02_01h11.45.986,musicalMathTest,2022.2.4,59.89767081835093,
music\active\vocals\Believe It (90) by Ty Magenta.wav,believe it,active,vocals,2,90,multiply,10,6,60,63,62,61,0,8,8,5,0,3,3,103,,,,,,,,,,,,,,,,,,,,,,,,,,,,,,,835.5383309999961,835.5383309999961,835.5383309999961,835.5383309999961,835.5383309999961,0.007000099998549558,835.5383309999961,True,-0.1037037037037037,-0.4097222222222222,1,0,0,ansTwo,,,,,,,,,,,,,,,,002,2022-11-02_01h11.45.986,musicalMathTest,2022.2.4,59.89767081835093,
music\active\vocals\Believe It (90) by Ty Magenta.wav,believe it,active,vocals,2,90,add,44,26,70,77,79,78,0,8,8,5,0,4,4,18,,,,,,,,,,,,,,,,,,,,,,,,,,,,,,,836.835894099997,836.835894099997,836.835894099997,836.835894099997,836.835894099997,0.006928800001333002,836.835894099997,True,-0.30416666666666664,-0.4050925925925926,1,0,0,ansOne,,,,,,,,,,,,,,,,002,2022-11-02_01h11.45.986,musicalMathTest,2022.2.4,59.89767081835093,
