songfilename,SongName,Speed,Condition,fileblock,testdurationsec,CategoryType,NumOne,NumTwo,Correct,Incorrect1,Incorrect2,Incorrect3,musicTypeLoop.thisRepN,musicTypeLoop.thisTrialN,musicTypeLoop.thisN,musicTypeLoop.thisIndex,trialsMath.thisRepN,trialsMath.thisTrialN,trialsMath.thisN,trialsMath.thisIndex,partInfoImage.started,partinfomouse.started,partinfomouse.x,partinfomouse.y,partinfomouse.leftButton,partinfomouse.midButton,partinfomouse.rightButton,partInfoImage_2.started,partinfomouse_2.started,consentBox.started,partinfomouse_2.x,partinfomouse_2.y,partinfomouse_2.leftButton,partinfomouse_2.midButton,partinfomouse_2.rightButton,partinfomouse_2.clicked_name,partInfoImage_3.started,partinfomouse_3.started,partinfomouse_3.x,partinfomouse_3.y,partinfomouse_3.leftButton,partinfomouse_3.midButton,partinfomouse_3.rightButton,partInfoImage_4.started,partinfomouse_4.started,partinfomouse_4.x,partinfomouse_4.y,partinfomouse_4.leftButton,partinfomouse_4.midButton,partinfomouse_4.rightButton,question.started,ansOne.started,ansTwo.started,ansThree.started,ansFour.started,mouseclickResponse.started,debuginfo.started,correctClick,mouseclickResponse.x,mouseclickResponse.y,mouseclickResponse.leftButton,mouseclickResponse.midButton,mouseclickResponse.rightButton,mouseclickResponse.clicked_name,text.started,text.stopped,partInfoImage_5.started,partinfomouse_5.started,partinfomouse_5.x,partinfomouse_5.y,partinfomouse_5.leftButton,partinfomouse_5.midButton,partinfomouse_5.rightButton,partInfoImage_6.started,partinfomouse_6.started,partinfomouse_6.x,partinfomouse_6.y,partinfomouse_6.leftButton,partinfomouse_6.midButton,partinfomouse_6.rightButton,session,date,expName,psychopyVersion,frameRate,
,,,,,,,,,,,,,,,,,,,,,12.525700199999847,3.090000245720148e-05,0.5601851851851852,-0.004629629629629629,1,0,0,,,,,,,,,,,,,,,,,,,,,,,,,,,,,,,,,,,,,,,,,,,,,,,,,,,,,,001,2022-11-01_20h41.16.054,musicalMathTest,2022.2.4,60.12871151996619,
,,,,,,,,,,,,,,,,,,,,,,,,,,,,18.495576399960555,2.6699970476329327e-05,18.495576399960555,0.26851851851851855,-0.4388888888888889,1,0,0,consentBox,,,,,,,,,,,,,,,,,,,,,,,,,,,,,,,,,,,,,,,,,,,,,001,2022-11-01_20h41.16.054,musicalMathTest,2022.2.4,60.12871151996619,
,,,,,,,,,,,,,,,,,,,,,,,,,,,,,,,,,,,,,20.57555189996492,2.280005719512701e-05,0.6314814814814815,-0.14166666666666666,1,0,0,,,,,,,,,,,,,,,,,,,,,,,,,,,,,,,,,,,,,,001,2022-11-01_20h41.16.054,musicalMathTest,2022.2.4,60.12871151996619,
music\active\vocals\Someone Like You (90) (Chorus Vocals) by Poison Beaches.wav,someone like you,active,vocals,2,90,multiply,2,14,28,29,31,30,0,0,0,1,0,0,0,86,,,,,,,,,,,,,,,,,,,,,,,,36.536160800023936,0.15262860001530498,0.6351851851851852,-0.16574074074074074,1,0,0,41.842768499976955,41.842768499976955,41.842768499976955,41.842768499976955,41.842768499976955,0.13574479997623712,41.842768499976955,True,-0.11388888888888889,-0.4101851851851852,1,0,0,ansTwo,,,,,,,,,,,,,,,,,001,2022-11-01_20h41.16.054,musicalMathTest,2022.2.4,60.12871151996619,
music\active\vocals\Someone Like You (90) (Chorus Vocals) by Poison Beaches.wav,someone like you,active,vocals,2,90,subtract,53,21,32,40,35,40,0,0,0,1,0,1,1,51,,,,,,,,,,,,,,,,,,,,,,,,,,,,,,,49.7656333000632,49.7656333000632,49.7656333000632,49.7656333000632,49.7656333000632,0.01602949993684888,49.7656333000632,True,-0.3,-0.4,1,0,0,ansOne,,,,,,,,,,,,,,,,,001,2022-11-01_20h41.16.054,musicalMathTest,2022.2.4,60.12871151996619,
music\active\vocals\Someone Like You (90) (Chorus Vocals) by Poison Beaches.wav,someone like you,active,vocals,2,90,multiply,6,10,60,61,68,70,0,0,0,1,0,2,2,75,,,,,,,,,,,,,,,,,,,,,,,,,,,,,,,57.5965933999978,57.5965933999978,57.5965933999978,57.5965933999978,57.5965933999978,0.016295200097374618,57.5965933999978,True,-0.2953703703703704,-0.3990740740740741,1,0,0,ansOne,,,,,,,,,,,,,,,,,001,2022-11-01_20h41.16.054,musicalMathTest,2022.2.4,60.12871151996619,
music\active\vocals\Someone Like You (90) (Chorus Vocals) by Poison Beaches.wav,someone like you,active,vocals,2,90,multiply,14,10,140,146,141,143,0,0,0,1,0,3,3,74,,,,,,,,,,,,,,,,,,,,,,,,,,,,,,,59.77527760004159,59.77527760004159,59.77527760004159,59.77527760004159,59.77527760004159,0.009900399949401617,59.77527760004159,True,0.09537037037037037,-0.3925925925925926,1,0,0,ansThree,,,,,,,,,,,,,,,,,001,2022-11-01_20h41.16.054,musicalMathTest,2022.2.4,60.12871151996619,
music\active\vocals\Someone Like You (90) (Chorus Vocals) by Poison Beaches.wav,someone like you,active,vocals,2,90,multiply,5,19,95,102,96,100,0,0,0,1,0,4,4,112,,,,,,,,,,,,,,,,,,,,,,,,,,,,,,,62.25841030001175,62.25841030001175,62.25841030001175,62.25841030001175,62.25841030001175,0.01035050000064075,62.25841030001175,True,0.09722222222222222,-0.3962962962962963,1,0,0,ansThree,,,,,,,,,,,,,,,,,001,2022-11-01_20h41.16.054,musicalMathTest,2022.2.4,60.12871151996619,
music\active\vocals\Someone Like You (90) (Chorus Vocals) by Poison Beaches.wav,someone like you,active,vocals,2,90,subtract,46,44,2,4,7,4,0,0,0,1,0,5,5,39,,,,,,,,,,,,,,,,,,,,,,,,,,,,,,,68.94007700006478,68.94007700006478,68.94007700006478,68.94007700006478,68.94007700006478,0.009361100033856928,68.94007700006478,True,-0.09814814814814815,-0.4046296296296296,1,0,0,ansTwo,,,,,,,,,,,,,,,,,001,2022-11-01_20h41.16.054,musicalMathTest,2022.2.4,60.12871151996619,
music\active\vocals\Someone Like You (90) (Chorus Vocals) by Poison Beaches.wav,someone like you,active,vocals,2,90,multiply,19,5,95,101,100,97,0,0,0,1,0,6,6,100,,,,,,,,,,,,,,,,,,,,,,,,,,,,,,,75.68919730000198,75.68919730000198,75.68919730000198,75.68919730000198,75.68919730000198,0.010160199948586524,75.68919730000198,True,0.08981481481481482,-0.3990740740740741,1,0,0,ansThree,,,,,,,,,,,,,,,,,001,2022-11-01_20h41.16.054,musicalMathTest,2022.2.4,60.12871151996619,
music\active\vocals\Someone Like You (90) (Chorus Vocals) by Poison Beaches.wav,someone like you,active,vocals,2,90,add,44,26,70,77,79,78,0,0,0,1,0,7,7,18,,,,,,,,,,,,,,,,,,,,,,,,,,,,,,,77.92688619997352,77.92688619997352,77.92688619997352,77.92688619997352,77.92688619997352,0.014556299895048141,77.92688619997352,True,-0.3111111111111111,-0.40185185185185185,1,0,0,ansOne,,,,,,,,,,,,,,,,,001,2022-11-01_20h41.16.054,musicalMathTest,2022.2.4,60.12871151996619,
music\active\vocals\Someone Like You (90) (Chorus Vocals) by Poison Beaches.wav,someone like you,active,vocals,2,90,multiply,19,10,190,195,197,195,0,0,0,1,0,8,8,68,,,,,,,,,,,,,,,,,,,,,,,,,,,,,,,84.3901152999606,84.3901152999606,84.3901152999606,84.3901152999606,84.3901152999606,0.012208700063638389,84.3901152999606,True,0.11481481481481481,-0.39814814814814814,1,0,0,ansThree,,,,,,,,,,,,,,,,,001,2022-11-01_20h41.16.054,musicalMathTest,2022.2.4,60.12871151996619,
music\active\vocals\Someone Like You (90) (Chorus Vocals) by Poison Beaches.wav,someone like you,active,vocals,2,90,subtract,56,54,2,8,5,9,0,0,0,1,0,9,9,34,,,,,,,,,,,,,,,,,,,,,,,,,,,,,,,86.53896270005498,86.53896270005498,86.53896270005498,86.53896270005498,86.53896270005498,0.009262799983844161,86.53896270005498,True,0.09907407407407408,-0.40555555555555556,1,0,0,ansThree,,,,,,,,,,,,,,,,,001,2022-11-01_20h41.16.054,musicalMathTest,2022.2.4,60.12871151996619,
music\active\vocals\Someone Like You (90) (Chorus Vocals) by Poison Beaches.wav,someone like you,active,vocals,2,90,multiply,10,19,190,197,199,191,0,0,0,1,0,10,10,80,,,,,,,,,,,,,,,,,,,,,,,,,,,,,,,90.30790610006079,90.30790610006079,90.30790610006079,90.30790610006079,90.30790610006079,0.013751300051808357,90.30790610006079,True,0.08518518518518518,-0.3972222222222222,1,0,0,ansThree,,,,,,,,,,,,,,,,,001,2022-11-01_20h41.16.054,musicalMathTest,2022.2.4,60.12871151996619,
music\active\vocals\Someone Like You (90) (Chorus Vocals) by Poison Beaches.wav,someone like you,active,vocals,2,90,subtract,54,13,41,49,42,45,0,0,0,1,0,11,11,50,,,,,,,,,,,,,,,,,,,,,,,,,,,,,,,91.85439470002893,91.85439470002893,91.85439470002893,91.85439470002893,91.85439470002893,0.00958449998870492,91.85439470002893,True,-0.3055555555555556,-0.39537037037037037,1,0,0,ansOne,,,,,,,,,,,,,,,,,001,2022-11-01_20h41.16.054,musicalMathTest,2022.2.4,60.12871151996619,
music\active\vocals\Someone Like You (90) (Chorus Vocals) by Poison Beaches.wav,someone like you,active,vocals,2,90,multiply,2,6,12,20,22,15,0,0,0,1,0,12,12,87,,,,,,,,,,,,,,,,,,,,,,,,,,,,,,,100.93698300002143,100.93698300002143,100.93698300002143,100.93698300002143,100.93698300002143,0.010077600018121302,100.93698300002143,True,-0.1,-0.40185185185185185,1,0,0,ansTwo,,,,,,,,,,,,,,,,,001,2022-11-01_20h41.16.054,musicalMathTest,2022.2.4,60.12871151996619,
music\active\vocals\Someone Like You (90) (Chorus Vocals) by Poison Beaches.wav,someone like you,active,vocals,2,90,multiply,19,10,190,195,192,196,0,0,0,1,0,13,13,108,,,,,,,,,,,,,,,,,,,,,,,,,,,,,,,102.46953260002192,102.46953260002192,102.46953260002192,102.46953260002192,102.46953260002192,0.01015190000180155,102.46953260002192,True,-0.09907407407407408,-0.4,1,0,0,ansTwo,,,,,,,,,,,,,,,,,001,2022-11-01_20h41.16.054,musicalMathTest,2022.2.4,60.12871151996619,
music\active\vocals\Someone Like You (90) (Chorus Vocals) by Poison Beaches.wav,someone like you,active,vocals,2,90,subtract,54,54,0,1,3,2,0,0,0,1,0,14,14,43,,,,,,,,,,,,,,,,,,,,,,,,,,,,,,,103.8718063000124,103.8718063000124,103.8718063000124,103.8718063000124,103.8718063000124,0.013334499904885888,103.8718063000124,True,-0.10277777777777777,-0.4009259259259259,1,0,0,ansTwo,,,,,,,,,,,,,,,,,001,2022-11-01_20h41.16.054,musicalMathTest,2022.2.4,60.12871151996619,
music\active\vocals\Someone Like You (90) (Chorus Vocals) by Poison Beaches.wav,someone like you,active,vocals,2,90,multiply,6,5,30,40,36,38,0,0,0,1,0,15,15,99,,,,,,,,,,,,,,,,,,,,,,,,,,,,,,,106.03638980002142,106.03638980002142,106.03638980002142,106.03638980002142,106.03638980002142,0.00969119998626411,106.03638980002142,True,-0.30925925925925923,-0.3962962962962963,1,0,0,ansOne,,,,,,,,,,,,,,,,,001,2022-11-01_20h41.16.054,musicalMathTest,2022.2.4,60.12871151996619,
music\active\vocals\Someone Like You (90) (Chorus Vocals) by Poison Beaches.wav,someone like you,active,vocals,2,90,multiply,5,6,30,36,38,42,0,0,0,1,0,16,16,71,,,,,,,,,,,,,,,,,,,,,,,,,,,,,,,108.50475199997891,108.50475199997891,108.50475199997891,108.50475199997891,108.50475199997891,0.011799900094047189,108.50475199997891,True,-0.30648148148148147,-0.38981481481481484,1,0,0,ansOne,,,,,,,,,,,,,,,,,001,2022-11-01_20h41.16.054,musicalMathTest,2022.2.4,60.12871151996619,
music\active\vocals\Someone Like You (90) (Chorus Vocals) by Poison Beaches.wav,someone like you,active,vocals,2,90,multiply,10,11,110,115,118,115,0,0,0,1,0,17,17,97,,,,,,,,,,,,,,,,,,,,,,,,,,,,,,,111.11995209997986,111.11995209997986,111.11995209997986,111.11995209997986,111.11995209997986,0.011378400027751923,111.11995209997986,True,-0.2953703703703704,-0.39444444444444443,1,0,0,ansOne,,,,,,,,,,,,,,,,,001,2022-11-01_20h41.16.054,musicalMathTest,2022.2.4,60.12871151996619,
music\active\vocals\Someone Like You (90) (Chorus Vocals) by Poison Beaches.wav,someone like you,active,vocals,2,90,multiply,14,10,140,144,148,141,0,0,0,1,0,18,18,90,,,,,,,,,,,,,,,,,,,,,,,,,,,,,,,114.21881800005212,114.21881800005212,114.21881800005212,114.21881800005212,114.21881800005212,0.010422799969092011,114.21881800005212,True,-0.10925925925925926,-0.3972222222222222,1,0,0,ansTwo,,,,,,,,,,,,,,,,,001,2022-11-01_20h41.16.054,musicalMathTest,2022.2.4,60.12871151996619,
music\active\vocals\Someone Like You (90) (Chorus Vocals) by Poison Beaches.wav,someone like you,active,vocals,2,90,add,44,11,55,57,61,56,0,0,0,1,0,19,19,21,,,,,,,,,,,,,,,,,,,,,,,,,,,,,,,115.85150500002783,115.85150500002783,115.85150500002783,115.85150500002783,115.85150500002783,0.01012230000924319,115.85150500002783,False,0.2935185185185185,-0.3972222222222222,1,0,0,ansFour,,,,,,,,,,,,,,,,,001,2022-11-01_20h41.16.054,musicalMathTest,2022.2.4,60.12871151996619,
music\active\vocals\Someone Like You (90) (Chorus Vocals) by Poison Beaches.wav,someone like you,active,vocals,2,90,multiply,11,5,55,61,63,61,0,0,0,1,0,20,20,85,,,,,,,,,,,,,,,,,,,,,,,,,,,,,,,123.46699250000529,123.46699250000529,123.46699250000529,123.46699250000529,123.46699250000529,0.009847100009210408,123.46699250000529,True,0.1,-0.3925925925925926,1,0,0,ansThree,,,,,,,,,,,,,,,,,001,2022-11-01_20h41.16.054,musicalMathTest,2022.2.4,60.12871151996619,
music\active\vocals\Someone Like You (90) (Chorus Vocals) by Poison Beaches.wav,someone like you,active,vocals,2,90,multiply,5,11,55,56,63,57,0,0,0,1,0,21,21,73,,,,,,,,,,,,,,,,,,,,,,,,,,,,,,,125.39978630002588,125.39978630002588,125.39978630002588,125.39978630002588,125.39978630002588,0.009358400013297796,125.39978630002588,True,0.10740740740740741,-0.39444444444444443,1,0,0,ansThree,,,,,,,,,,,,,,,,,001,2022-11-01_20h41.16.054,musicalMathTest,2022.2.4,60.12871151996619,
music\active\vocals\Someone Like You (90) (Chorus Vocals) by Poison Beaches.wav,someone like you,active,vocals,2,90,multiply,5,19,95,102,96,100,0,0,0,1,0,22,22,72,,,,,,,,,,,,,,,,,,,,,,,,,,,,,,,126.66837590001523,126.66837590001523,126.66837590001523,126.66837590001523,126.66837590001523,0.013205000082962215,126.66837590001523,True,0.10185185185185185,-0.40185185185185185,1,0,0,ansThree,,,,,,,,,,,,,,,,,001,2022-11-01_20h41.16.054,musicalMathTest,2022.2.4,60.12871151996619,
music\active\vocals\Someone Like You (90) (Chorus Vocals) by Poison Beaches.wav,someone like you,active,vocals,2,90,add,58,54,112,117,118,114,0,0,0,1,0,23,23,6,,,,,,,,,,,,,,,,,,,,,,,,,,,,,,,129.71668960002717,129.71668960002717,129.71668960002717,129.71668960002717,129.71668960002717,0.009789299918338656,129.71668960002717,True,-0.29814814814814816,-0.4111111111111111,1,0,0,ansOne,,,,,,,,,,,,,,,,,001,2022-11-01_20h41.16.054,musicalMathTest,2022.2.4,60.12871151996619,
music\active\instrumentals\Soda Pop (90) (Instrumental) by Stony Pony.wav,soda pop,active,instrumental,2,90,add,58,54,112,117,118,114,0,1,1,0,0,0,0,6,,,,,,,,,,,,,,,,,,,,,,,,141.28894830006175,0.03561090002767742,0.13333333333333333,-0.32037037037037036,1,0,0,149.20604720001575,149.20604720001575,149.20604720001575,149.20604720001575,149.20604720001575,0.027863599942065775,149.20604720001575,True,0.11666666666666667,-0.40555555555555556,1,0,0,ansThree,136.26052210002672,,,,,,,,,,,,,,,,001,2022-11-01_20h41.16.054,musicalMathTest,2022.2.4,60.12871151996619,
music\active\instrumentals\Soda Pop (90) (Instrumental) by Stony Pony.wav,soda pop,active,instrumental,2,90,add,57,54,111,115,118,112,0,1,1,0,0,1,1,9,,,,,,,,,,,,,,,,,,,,,,,,,,,,,,,159.22872380004264,159.22872380004264,159.22872380004264,159.22872380004264,159.22872380004264,0.00956380006391555,159.22872380004264,True,0.09537037037037037,-0.4101851851851852,1,0,0,ansThree,,,,,,,,,,,,,,,,,001,2022-11-01_20h41.16.054,musicalMathTest,2022.2.4,60.12871151996619,
music\active\instrumentals\Soda Pop (90) (Instrumental) by Stony Pony.wav,soda pop,active,instrumental,2,90,multiply,6,5,30,40,36,38,0,1,1,0,0,2,2,99,,,,,,,,,,,,,,,,,,,,,,,,,,,,,,,166.27887430007104,166.27887430007104,166.27887430007104,166.27887430007104,166.27887430007104,0.010480899945832789,166.27887430007104,True,0.10092592592592593,-0.3925925925925926,1,0,0,ansThree,,,,,,,,,,,,,,,,,001,2022-11-01_20h41.16.054,musicalMathTest,2022.2.4,60.12871151996619,
music\active\instrumentals\Soda Pop (90) (Instrumental) by Stony Pony.wav,soda pop,active,instrumental,2,90,subtract,54,21,33,35,37,40,0,1,1,0,0,3,3,59,,,,,,,,,,,,,,,,,,,,,,,,,,,,,,,167.55180380004458,167.55180380004458,167.55180380004458,167.55180380004458,167.55180380004458,0.016726100002415478,167.55180380004458,True,-0.3074074074074074,-0.40555555555555556,1,0,0,ansOne,,,,,,,,,,,,,,,,,001,2022-11-01_20h41.16.054,musicalMathTest,2022.2.4,60.12871151996619,
music\active\instrumentals\Soda Pop (90) (Instrumental) by Stony Pony.wav,soda pop,active,instrumental,2,90,add,56,54,110,116,118,122,0,1,1,0,0,4,4,3,,,,,,,,,,,,,,,,,,,,,,,,,,,,,,,177.24575080000795,177.24575080000795,177.24575080000795,177.24575080000795,177.24575080000795,0.013782800058834255,177.24575080000795,True,-0.2833333333333333,-0.40370370370370373,1,0,0,ansOne,,,,,,,,,,,,,,,,,001,2022-11-01_20h41.16.054,musicalMathTest,2022.2.4,60.12871151996619,
music\active\instrumentals\Soda Pop (90) (Instrumental) by Stony Pony.wav,soda pop,active,instrumental,2,90,subtract,56,54,2,8,5,9,0,1,1,0,0,5,5,34,,,,,,,,,,,,,,,,,,,,,,,,,,,,,,,184.27529510005843,184.27529510005843,184.27529510005843,184.27529510005843,184.27529510005843,0.008851799997501075,184.27529510005843,True,-0.2972222222222222,-0.4009259259259259,1,0,0,ansOne,,,,,,,,,,,,,,,,,001,2022-11-01_20h41.16.054,musicalMathTest,2022.2.4,60.12871151996619,
music\active\instrumentals\Soda Pop (90) (Instrumental) by Stony Pony.wav,soda pop,active,instrumental,2,90,add,44,26,70,77,79,78,0,1,1,0,0,6,6,18,,,,,,,,,,,,,,,,,,,,,,,,,,,,,,,187.70893349999096,187.70893349999096,187.70893349999096,187.70893349999096,187.70893349999096,0.0099804000928998,187.70893349999096,True,-0.29444444444444445,-0.3925925925925926,1,0,0,ansOne,,,,,,,,,,,,,,,,,001,2022-11-01_20h41.16.054,musicalMathTest,2022.2.4,60.12871151996619,
music\active\instrumentals\Soda Pop (90) (Instrumental) by Stony Pony.wav,soda pop,active,instrumental,2,90,add,54,53,107,112,115,110,0,1,1,0,0,7,7,14,,,,,,,,,,,,,,,,,,,,,,,,,,,,,,,193.96329129999503,193.96329129999503,193.96329129999503,193.96329129999503,193.96329129999503,0.014772700029425323,193.96329129999503,True,-0.09907407407407408,-0.39537037037037037,1,0,0,ansTwo,,,,,,,,,,,,,,,,,001,2022-11-01_20h41.16.054,musicalMathTest,2022.2.4,60.12871151996619,
music\active\instrumentals\Soda Pop (90) (Instrumental) by Stony Pony.wav,soda pop,active,instrumental,2,90,subtract,44,21,23,28,30,24,0,1,1,0,0,8,8,55,,,,,,,,,,,,,,,,,,,,,,,,,,,,,,,200.62426000006963,200.62426000006963,200.62426000006963,200.62426000006963,200.62426000006963,0.010472599999047816,200.62426000006963,True,-0.0962962962962963,-0.4046296296296296,1,0,0,ansTwo,,,,,,,,,,,,,,,,,001,2022-11-01_20h41.16.054,musicalMathTest,2022.2.4,60.12871151996619,
music\active\instrumentals\Soda Pop (90) (Instrumental) by Stony Pony.wav,soda pop,active,instrumental,2,90,multiply,19,10,190,198,200,195,0,1,1,0,0,9,9,92,,,,,,,,,,,,,,,,,,,,,,,,,,,,,,,206.2565123999957,206.2565123999957,206.2565123999957,206.2565123999957,206.2565123999957,0.00979200005531311,206.2565123999957,True,0.10740740740740741,-0.39814814814814814,1,0,0,ansThree,,,,,,,,,,,,,,,,,001,2022-11-01_20h41.16.054,musicalMathTest,2022.2.4,60.12871151996619,
music\active\instrumentals\Soda Pop (90) (Instrumental) by Stony Pony.wav,soda pop,active,instrumental,2,90,multiply,10,6,60,66,70,67,0,1,1,0,0,10,10,79,,,,,,,,,,,,,,,,,,,,,,,,,,,,,,,208.45666400005575,208.45666400005575,208.45666400005575,208.45666400005575,208.45666400005575,0.01021720003336668,208.45666400005575,True,-0.2962962962962963,-0.40370370370370373,1,0,0,ansOne,,,,,,,,,,,,,,,,,001,2022-11-01_20h41.16.054,musicalMathTest,2022.2.4,60.12871151996619,
music\active\instrumentals\Soda Pop (90) (Instrumental) by Stony Pony.wav,soda pop,active,instrumental,2,90,multiply,5,6,30,31,38,37,0,1,1,0,0,11,11,111,,,,,,,,,,,,,,,,,,,,,,,,,,,,,,,210.0221202999819,210.0221202999819,210.0221202999819,210.0221202999819,210.0221202999819,0.009167299955151975,210.0221202999819,True,-0.29907407407407405,-0.4009259259259259,1,0,0,ansOne,,,,,,,,,,,,,,,,,001,2022-11-01_20h41.16.054,musicalMathTest,2022.2.4,60.12871151996619,
music\active\instrumentals\Soda Pop (90) (Instrumental) by Stony Pony.wav,soda pop,active,instrumental,2,90,multiply,5,14,70,77,74,75,0,1,1,0,0,12,12,110,,,,,,,,,,,,,,,,,,,,,,,,,,,,,,,211.5222400999628,211.5222400999628,211.5222400999628,211.5222400999628,211.5222400999628,0.009615299990400672,211.5222400999628,True,0.09907407407407408,-0.39444444444444443,1,0,0,ansThree,,,,,,,,,,,,,,,,,001,2022-11-01_20h41.16.054,musicalMathTest,2022.2.4,60.12871151996619,
music\active\instrumentals\Soda Pop (90) (Instrumental) by Stony Pony.wav,soda pop,active,instrumental,2,90,multiply,2,14,28,29,31,30,0,1,1,0,0,13,13,86,,,,,,,,,,,,,,,,,,,,,,,,,,,,,,,219.0221775000682,219.0221775000682,219.0221775000682,219.0221775000682,219.0221775000682,0.010525300051085651,219.0221775000682,True,0.08518518518518518,-0.4009259259259259,1,0,0,ansThree,,,,,,,,,,,,,,,,,001,2022-11-01_20h41.16.054,musicalMathTest,2022.2.4,60.12871151996619,
music\active\instrumentals\Soda Pop (90) (Instrumental) by Stony Pony.wav,soda pop,active,instrumental,2,90,subtract,44,44,0,1,2,3,0,1,1,0,0,14,14,46,,,,,,,,,,,,,,,,,,,,,,,,,,,,,,,220.7381108000409,220.7381108000409,220.7381108000409,220.7381108000409,220.7381108000409,0.009575100033544004,220.7381108000409,True,-0.10277777777777777,-0.4083333333333333,1,0,0,ansTwo,,,,,,,,,,,,,,,,,001,2022-11-01_20h41.16.054,musicalMathTest,2022.2.4,60.12871151996619,
music\active\instrumentals\Soda Pop (90) (Instrumental) by Stony Pony.wav,soda pop,active,instrumental,2,90,multiply,2,6,12,20,22,15,0,1,1,0,0,15,15,87,,,,,,,,,,,,,,,,,,,,,,,,,,,,,,,222.93700460006949,222.93700460006949,222.93700460006949,222.93700460006949,222.93700460006949,0.009458899963647127,222.93700460006949,True,-0.2916666666666667,-0.4074074074074074,1,0,0,ansOne,,,,,,,,,,,,,,,,,001,2022-11-01_20h41.16.054,musicalMathTest,2022.2.4,60.12871151996619,
music\active\instrumentals\Soda Pop (90) (Instrumental) by Stony Pony.wav,soda pop,active,instrumental,2,90,multiply,6,10,60,68,63,67,0,1,1,0,0,16,16,91,,,,,,,,,,,,,,,,,,,,,,,,,,,,,,,224.62146050005686,224.62146050005686,224.62146050005686,224.62146050005686,224.62146050005686,0.009752999991178513,224.62146050005686,True,-0.30277777777777776,-0.4083333333333333,1,0,0,ansOne,,,,,,,,,,,,,,,,,001,2022-11-01_20h41.16.054,musicalMathTest,2022.2.4,60.12871151996619,
music\active\instrumentals\Soda Pop (90) (Instrumental) by Stony Pony.wav,soda pop,active,instrumental,2,90,subtract,62,58,4,5,9,6,0,1,1,0,0,17,17,44,,,,,,,,,,,,,,,,,,,,,,,,,,,,,,,227.52170599997044,227.52170599997044,227.52170599997044,227.52170599997044,227.52170599997044,0.011325899977236986,227.52170599997044,True,0.10648148148148148,-0.40185185185185185,1,0,0,ansThree,,,,,,,,,,,,,,,,,001,2022-11-01_20h41.16.054,musicalMathTest,2022.2.4,60.12871151996619,
music\active\instrumentals\Soda Pop (90) (Instrumental) by Stony Pony.wav,soda pop,active,instrumental,2,90,multiply,14,10,140,144,148,141,0,1,1,0,0,18,18,90,,,,,,,,,,,,,,,,,,,,,,,,,,,,,,,236.58566590002738,236.58566590002738,236.58566590002738,236.58566590002738,236.58566590002738,0.0100897999946028,236.58566590002738,True,-0.0962962962962963,-0.39537037037037037,1,0,0,ansTwo,,,,,,,,,,,,,,,,,001,2022-11-01_20h41.16.054,musicalMathTest,2022.2.4,60.12871151996619,
music\active\instrumentals\Soda Pop (90) (Instrumental) by Stony Pony.wav,soda pop,active,instrumental,2,90,subtract,58,26,32,38,39,43,0,1,1,0,0,19,19,57,,,,,,,,,,,,,,,,,,,,,,,,,,,,,,,238.5361114999978,238.5361114999978,238.5361114999978,238.5361114999978,238.5361114999978,0.009560799924656749,238.5361114999978,True,0.1,-0.4,1,0,0,ansThree,,,,,,,,,,,,,,,,,001,2022-11-01_20h41.16.054,musicalMathTest,2022.2.4,60.12871151996619,
music\silence.wav,silent,silent,silent,2,90,add,63,58,121,128,124,123,0,2,2,9,0,0,0,7,,,,,,,,,,,,,,,,,,,,,,,,249.8179506000597,0.010613500024192035,0.12685185185185185,-0.4009259259259259,1,0,0,261.2040566999931,261.2040566999931,261.2040566999931,261.2040566999931,261.2040566999931,0.023842799942940474,261.2040566999931,True,-0.28888888888888886,-0.3990740740740741,1,0,0,ansOne,244.81287400005385,249.8179506000597,,,,,,,,,,,,,,,001,2022-11-01_20h41.16.054,musicalMathTest,2022.2.4,60.12871151996619,
music\silence.wav,silent,silent,silent,2,90,add,58,26,84,87,91,95,0,2,2,9,0,1,1,26,,,,,,,,,,,,,,,,,,,,,,,,,,,,,,,267.3823103000177,267.3823103000177,267.3823103000177,267.3823103000177,267.3823103000177,0.009252899908460677,267.3823103000177,True,-0.3148148148148148,-0.3962962962962963,1,0,0,ansOne,,,,,,,,,,,,,,,,,001,2022-11-01_20h41.16.054,musicalMathTest,2022.2.4,60.12871151996619,
music\silence.wav,silent,silent,silent,2,90,subtract,44,44,0,5,3,1,0,2,2,9,0,2,2,36,,,,,,,,,,,,,,,,,,,,,,,,,,,,,,,272.5260445000604,272.5260445000604,272.5260445000604,272.5260445000604,272.5260445000604,0.020227200002409518,272.5260445000604,True,-0.1037037037037037,-0.3962962962962963,1,0,0,ansTwo,,,,,,,,,,,,,,,,,001,2022-11-01_20h41.16.054,musicalMathTest,2022.2.4,60.12871151996619,
music\silence.wav,silent,silent,silent,2,90,multiply,10,19,190,191,192,193,0,2,2,9,0,3,3,96,,,,,,,,,,,,,,,,,,,,,,,,,,,,,,,274.064551700023,274.064551700023,274.064551700023,274.064551700023,274.064551700023,0.010463899932801723,274.064551700023,True,-0.32037037037037036,-0.3972222222222222,1,0,0,ansOne,,,,,,,,,,,,,,,,,001,2022-11-01_20h41.16.054,musicalMathTest,2022.2.4,60.12871151996619,
music\silence.wav,silent,silent,silent,2,90,add,53,11,64,68,67,71,0,2,2,9,0,4,4,17,,,,,,,,,,,,,,,,,,,,,,,,,,,,,,,275.56786589999683,275.56786589999683,275.56786589999683,275.56786589999683,275.56786589999683,0.013923099962994456,275.56786589999683,True,-0.30648148148148147,-0.40555555555555556,1,0,0,ansOne,,,,,,,,,,,,,,,,,001,2022-11-01_20h41.16.054,musicalMathTest,2022.2.4,60.12871151996619,
music\silence.wav,silent,silent,silent,2,90,add,53,26,79,80,87,80,0,2,2,9,0,5,5,30,,,,,,,,,,,,,,,,,,,,,,,,,,,,,,,280.86398000002373,280.86398000002373,280.86398000002373,280.86398000002373,280.86398000002373,0.009562999941408634,280.86398000002373,True,-0.29259259259259257,-0.4074074074074074,1,0,0,ansOne,,,,,,,,,,,,,,,,,001,2022-11-01_20h41.16.054,musicalMathTest,2022.2.4,60.12871151996619,
music\silence.wav,silent,silent,silent,2,90,multiply,5,19,95,102,96,100,0,2,2,9,0,6,6,112,,,,,,,,,,,,,,,,,,,,,,,,,,,,,,,287.56375880003907,287.56375880003907,287.56375880003907,287.56375880003907,287.56375880003907,0.011102400021627545,287.56375880003907,True,0.09722222222222222,-0.4046296296296296,1,0,0,ansThree,,,,,,,,,,,,,,,,,001,2022-11-01_20h41.16.054,musicalMathTest,2022.2.4,60.12871151996619,
music\silence.wav,silent,silent,silent,2,90,subtract,63,58,5,10,9,8,0,2,2,9,0,7,7,41,,,,,,,,,,,,,,,,,,,,,,,,,,,,,,,289.4459094000049,289.4459094000049,289.4459094000049,289.4459094000049,289.4459094000049,0.00890879996586591,289.4459094000049,True,-0.3074074074074074,-0.3990740740740741,1,0,0,ansOne,,,,,,,,,,,,,,,,,001,2022-11-01_20h41.16.054,musicalMathTest,2022.2.4,60.12871151996619,
music\silence.wav,silent,silent,silent,2,90,add,63,58,121,127,129,133,0,2,2,9,0,8,8,10,,,,,,,,,,,,,,,,,,,,,,,,,,,,,,,295.36118620005436,295.36118620005436,295.36118620005436,295.36118620005436,295.36118620005436,0.009759200038388371,295.36118620005436,True,-0.3212962962962963,-0.4009259259259259,1,0,0,ansOne,,,,,,,,,,,,,,,,,001,2022-11-01_20h41.16.054,musicalMathTest,2022.2.4,60.12871151996619,
music\silence.wav,silent,silent,silent,2,90,multiply,10,14,140,143,148,143,0,2,2,9,0,9,9,94,,,,,,,,,,,,,,,,,,,,,,,,,,,,,,,301.57752280007116,301.57752280007116,301.57752280007116,301.57752280007116,301.57752280007116,0.009983199997805059,301.57752280007116,True,-0.09722222222222222,-0.39814814814814814,1,0,0,ansTwo,,,,,,,,,,,,,,,,,001,2022-11-01_20h41.16.054,musicalMathTest,2022.2.4,60.12871151996619,
music\silence.wav,silent,silent,silent,2,90,subtract,46,44,2,4,7,4,0,2,2,9,0,10,10,39,,,,,,,,,,,,,,,,,,,,,,,,,,,,,,,303.326440099976,303.326440099976,303.326440099976,303.326440099976,303.326440099976,0.00940659991465509,303.326440099976,True,-0.09907407407407408,-0.4009259259259259,1,0,0,ansTwo,,,,,,,,,,,,,,,,,001,2022-11-01_20h41.16.054,musicalMathTest,2022.2.4,60.12871151996619,
music\silence.wav,silent,silent,silent,2,90,add,53,21,74,77,75,77,0,2,2,9,0,11,11,20,,,,,,,,,,,,,,,,,,,,,,,,,,,,,,,308.8263980000047,308.8263980000047,308.8263980000047,308.8263980000047,308.8263980000047,0.009188099997118115,308.8263980000047,True,-0.10740740740740741,-0.39814814814814814,1,0,0,ansTwo,,,,,,,,,,,,,,,,,001,2022-11-01_20h41.16.054,musicalMathTest,2022.2.4,60.12871151996619,
music\silence.wav,silent,silent,silent,2,90,multiply,6,10,60,61,68,70,0,2,2,9,0,12,12,75,,,,,,,,,,,,,,,,,,,,,,,,,,,,,,,313.459023399977,313.459023399977,313.459023399977,313.459023399977,313.459023399977,0.009632100001908839,313.459023399977,True,-0.1,-0.3972222222222222,1,0,0,ansTwo,,,,,,,,,,,,,,,,,001,2022-11-01_20h41.16.054,musicalMathTest,2022.2.4,60.12871151996619,
music\silence.wav,silent,silent,silent,2,90,subtract,53,21,32,40,35,40,0,2,2,9,0,13,13,51,,,,,,,,,,,,,,,,,,,,,,,,,,,,,,,314.52656130003743,314.52656130003743,314.52656130003743,314.52656130003743,314.52656130003743,0.00987329997587949,314.52656130003743,True,-0.1037037037037037,-0.39814814814814814,1,0,0,ansTwo,,,,,,,,,,,,,,,,,001,2022-11-01_20h41.16.054,musicalMathTest,2022.2.4,60.12871151996619,
music\silence.wav,silent,silent,silent,2,90,multiply,10,11,110,120,111,116,0,2,2,9,0,14,14,105,,,,,,,,,,,,,,,,,,,,,,,,,,,,,,,319.2943871000316,319.2943871000316,319.2943871000316,319.2943871000316,319.2943871000316,0.01257569994777441,319.2943871000316,True,-0.08888888888888889,-0.4009259259259259,1,0,0,ansTwo,,,,,,,,,,,,,,,,,001,2022-11-01_20h41.16.054,musicalMathTest,2022.2.4,60.12871151996619,
music\silence.wav,silent,silent,silent,2,90,add,57,53,110,114,116,112,0,2,2,9,0,15,15,1,,,,,,,,,,,,,,,,,,,,,,,,,,,,,,,323.47504960000515,323.47504960000515,323.47504960000515,323.47504960000515,323.47504960000515,0.009253100026398897,323.47504960000515,True,0.11944444444444445,-0.40185185185185185,1,0,0,ansThree,,,,,,,,,,,,,,,,,001,2022-11-01_20h41.16.054,musicalMathTest,2022.2.4,60.12871151996619,
music\silence.wav,silent,silent,silent,2,90,subtract,58,53,5,11,7,13,0,2,2,9,0,16,16,35,,,,,,,,,,,,,,,,,,,,,,,,,,,,,,,328.94070290005766,328.94070290005766,328.94070290005766,328.94070290005766,328.94070290005766,0.010465700062923133,328.94070290005766,True,0.09259259259259259,-0.4,1,0,0,ansThree,,,,,,,,,,,,,,,,,001,2022-11-01_20h41.16.054,musicalMathTest,2022.2.4,60.12871151996619,
music\silence.wav,silent,silent,silent,2,90,subtract,53,11,42,49,45,46,0,2,2,9,0,17,17,48,,,,,,,,,,,,,,,,,,,,,,,,,,,,,,,334.1392398000462,334.1392398000462,334.1392398000462,334.1392398000462,334.1392398000462,0.009246999979950488,334.1392398000462,True,-0.29259259259259257,-0.4083333333333333,1,0,0,ansOne,,,,,,,,,,,,,,,,,001,2022-11-01_20h41.16.054,musicalMathTest,2022.2.4,60.12871151996619,
music\silence.wav,silent,silent,silent,2,90,multiply,19,10,190,195,192,196,0,2,2,9,0,18,18,108,,,,,,,,,,,,,,,,,,,,,,,,,,,,,,,338.4238041000208,338.4238041000208,338.4238041000208,338.4238041000208,338.4238041000208,0.011007399996742606,338.4238041000208,True,-0.29259259259259257,-0.39814814814814814,1,0,0,ansOne,,,,,,,,,,,,,,,,,001,2022-11-01_20h41.16.054,musicalMathTest,2022.2.4,60.12871151996619,
music\silence.wav,silent,silent,silent,2,90,subtract,54,26,28,18,33,37,0,2,2,9,0,19,19,53,,,,,,,,,,,,,,,,,,,,,,,,,,,,,,,339.98865990003105,339.98865990003105,339.98865990003105,339.98865990003105,339.98865990003105,0.0096110999584198,339.98865990003105,True,-0.30185185185185187,-0.4064814814814815,1,0,0,ansOne,,,,,,,,,,,,,,,,,001,2022-11-01_20h41.16.054,musicalMathTest,2022.2.4,60.12871151996619,
music\silence.wav,silent,silent,silent,2,90,multiply,5,11,55,56,63,57,0,2,2,9,0,20,20,73,,,,,,,,,,,,,,,,,,,,,,,,,,,,,,,344.838317799964,344.838317799964,344.838317799964,344.838317799964,344.838317799964,0.02672369999345392,344.838317799964,True,-0.29074074074074074,-0.4064814814814815,1,0,0,ansOne,,,,,,,,,,,,,,,,,001,2022-11-01_20h41.16.054,musicalMathTest,2022.2.4,60.12871151996619,
music\silence.wav,silent,silent,silent,2,90,multiply,19,5,95,105,103,101,0,2,2,9,0,21,21,84,,,,,,,,,,,,,,,,,,,,,,,,,,,,,,,346.78869570000097,346.78869570000097,346.78869570000097,346.78869570000097,346.78869570000097,0.010021799942478538,346.78869570000097,True,0.09166666666666666,-0.4009259259259259,1,0,0,ansThree,,,,,,,,,,,,,,,,,001,2022-11-01_20h41.16.054,musicalMathTest,2022.2.4,60.12871151996619,
music\silence.wav,silent,silent,silent,2,90,multiply,11,10,110,114,115,111,0,2,2,9,0,22,22,93,,,,,,,,,,,,,,,,,,,,,,,,,,,,,,,349.32177669997327,349.32177669997327,349.32177669997327,349.32177669997327,349.32177669997327,0.010415099910460413,349.32177669997327,True,-0.28703703703703703,-0.4083333333333333,1,0,0,ansOne,,,,,,,,,,,,,,,,,001,2022-11-01_20h41.16.054,musicalMathTest,2022.2.4,60.12871151996619,
music\silence.wav,silent,silent,silent,2,90,add,60,58,118,122,119,123,0,2,2,9,0,23,23,0,,,,,,,,,,,,,,,,,,,,,,,,,,,,,,,350.7212126000086,350.7212126000086,350.7212126000086,350.7212126000086,350.7212126000086,0.010117300087586045,350.7212126000086,True,-0.2851851851851852,-0.4111111111111111,1,0,0,ansOne,,,,,,,,,,,,,,,,,001,2022-11-01_20h41.16.054,musicalMathTest,2022.2.4,60.12871151996619,
music\active\vocals\Believe It (90) by Ty Magenta.wav,believe it,active,vocals,2,90,multiply,11,5,55,58,56,62,0,3,3,5,0,0,0,101,,,,,,,,,,,,,,,,,,,,,,,,361.28704690001905,0.011775100021623075,-0.010185185185185186,-0.3592592592592593,1,0,0,364.99760360002983,364.99760360002983,364.99760360002983,364.99760360002983,364.99760360002983,0.029013899969868362,364.99760360002983,True,-0.29444444444444445,-0.4009259259259259,1,0,0,ansOne,356.2820600999985,361.28704690001905,,,,,,,,,,,,,,,001,2022-11-01_20h41.16.054,musicalMathTest,2022.2.4,60.12871151996619,
music\active\vocals\Believe It (90) by Ty Magenta.wav,believe it,active,vocals,2,90,multiply,19,10,190,195,197,195,0,3,3,5,0,1,1,68,,,,,,,,,,,,,,,,,,,,,,,,,,,,,,,370.95143380004447,370.95143380004447,370.95143380004447,370.95143380004447,370.95143380004447,0.009019499993883073,370.95143380004447,True,-0.29444444444444445,-0.4009259259259259,1,0,0,ansOne,,,,,,,,,,,,,,,,,001,2022-11-01_20h41.16.054,musicalMathTest,2022.2.4,60.12871151996619,
music\active\vocals\Believe It (90) by Ty Magenta.wav,believe it,active,vocals,2,90,multiply,5,11,55,60,61,65,0,3,3,5,0,2,2,113,,,,,,,,,,,,,,,,,,,,,,,,,,,,,,,372.3510678000748,372.3510678000748,372.3510678000748,372.3510678000748,372.3510678000748,0.009268899913877249,372.3510678000748,True,-0.08981481481481482,-0.4027777777777778,1,0,0,ansTwo,,,,,,,,,,,,,,,,,001,2022-11-01_20h41.16.054,musicalMathTest,2022.2.4,60.12871151996619,
music\active\vocals\Believe It (90) by Ty Magenta.wav,believe it,active,vocals,2,90,add,58,53,111,118,117,113,0,3,3,5,0,3,3,4,,,,,,,,,,,,,,,,,,,,,,,,,,,,,,,373.6175459000515,373.6175459000515,373.6175459000515,373.6175459000515,373.6175459000515,0.008908599964343011,373.6175459000515,True,-0.3175925925925926,-0.40555555555555556,1,0,0,ansOne,,,,,,,,,,,,,,,,,001,2022-11-01_20h41.16.054,musicalMathTest,2022.2.4,60.12871151996619,
music\active\vocals\Believe It (90) by Ty Magenta.wav,believe it,active,vocals,2,90,add,49,44,93,101,97,103,0,3,3,5,0,4,4,2,,,,,,,,,,,,,,,,,,,,,,,,,,,,,,,385.8495581999887,385.8495581999887,385.8495581999887,385.8495581999887,385.8495581999887,0.00955790001899004,385.8495581999887,True,-0.09166666666666666,-0.3972222222222222,1,0,0,ansTwo,,,,,,,,,,,,,,,,,001,2022-11-01_20h41.16.054,musicalMathTest,2022.2.4,60.12871151996619,
music\active\vocals\Believe It (90) by Ty Magenta.wav,believe it,active,vocals,2,90,multiply,19,10,190,200,202,194,0,3,3,5,0,5,5,76,,,,,,,,,,,,,,,,,,,,,,,,,,,,,,,390.6988998000743,390.6988998000743,390.6988998000743,390.6988998000743,390.6988998000743,0.009850100032053888,390.6988998000743,True,-0.11203703703703703,-0.40370370370370373,1,0,0,ansTwo,,,,,,,,,,,,,,,,,001,2022-11-01_20h41.16.054,musicalMathTest,2022.2.4,60.12871151996619,
music\active\vocals\Believe It (90) by Ty Magenta.wav,believe it,active,vocals,2,90,multiply,14,10,140,144,148,141,0,3,3,5,0,6,6,90,,,,,,,,,,,,,,,,,,,,,,,,,,,,,,,391.86561089998577,391.86561089998577,391.86561089998577,391.86561089998577,391.86561089998577,0.009902499965392053,391.86561089998577,True,-0.2861111111111111,-0.40925925925925927,1,0,0,ansOne,,,,,,,,,,,,,,,,,001,2022-11-01_20h41.16.054,musicalMathTest,2022.2.4,60.12871151996619,
music\active\vocals\Believe It (90) by Ty Magenta.wav,believe it,active,vocals,2,90,add,53,21,74,77,75,77,0,3,3,5,0,7,7,20,,,,,,,,,,,,,,,,,,,,,,,,,,,,,,,393.63186720001977,393.63186720001977,393.63186720001977,393.63186720001977,393.63186720001977,0.0092333999928087,393.63186720001977,True,-0.2972222222222222,-0.4111111111111111,1,0,0,ansOne,,,,,,,,,,,,,,,,,001,2022-11-01_20h41.16.054,musicalMathTest,2022.2.4,60.12871151996619,
music\active\vocals\Believe It (90) by Ty Magenta.wav,believe it,active,vocals,2,90,subtract,49,44,5,6,13,11,0,3,3,5,0,8,8,33,,,,,,,,,,,,,,,,,,,,,,,,,,,,,,,397.5972402000334,397.5972402000334,397.5972402000334,397.5972402000334,397.5972402000334,0.009346600039862096,397.5972402000334,True,0.09351851851851851,-0.3990740740740741,1,0,0,ansThree,,,,,,,,,,,,,,,,,001,2022-11-01_20h41.16.054,musicalMathTest,2022.2.4,60.12871151996619,
music\active\vocals\Believe It (90) by Ty Magenta.wav,believe it,active,vocals,2,90,subtract,44,21,23,28,30,24,0,3,3,5,0,9,9,55,,,,,,,,,,,,,,,,,,,,,,,,,,,,,,,403.2804067999823,403.2804067999823,403.2804067999823,403.2804067999823,403.2804067999823,0.009690999984741211,403.2804067999823,True,-0.08796296296296297,-0.4074074074074074,1,0,0,ansTwo,,,,,,,,,,,,,,,,,001,2022-11-01_20h41.16.054,musicalMathTest,2022.2.4,60.12871151996619,
music\active\vocals\Believe It (90) by Ty Magenta.wav,believe it,active,vocals,2,90,multiply,6,10,60,61,68,70,0,3,3,5,0,10,10,75,,,,,,,,,,,,,,,,,,,,,,,,,,,,,,,407.61458769999444,407.61458769999444,407.61458769999444,407.61458769999444,407.61458769999444,0.009601800004020333,407.61458769999444,True,-0.10185185185185185,-0.4046296296296296,1,0,0,ansTwo,,,,,,,,,,,,,,,,,001,2022-11-01_20h41.16.054,musicalMathTest,2022.2.4,60.12871151996619,
music\active\vocals\Believe It (90) by Ty Magenta.wav,believe it,active,vocals,2,90,subtract,56,53,3,11,10,8,0,3,3,5,0,11,11,42,,,,,,,,,,,,,,,,,,,,,,,,,,,,,,,408.93074370000977,408.93074370000977,408.93074370000977,408.93074370000977,408.93074370000977,0.009242399944923818,408.93074370000977,True,0.0962962962962963,-0.3972222222222222,1,0,0,ansThree,,,,,,,,,,,,,,,,,001,2022-11-01_20h41.16.054,musicalMathTest,2022.2.4,60.12871151996619,
music\active\vocals\Believe It (90) by Ty Magenta.wav,believe it,active,vocals,2,90,multiply,2,11,22,26,29,23,0,3,3,5,0,12,12,89,,,,,,,,,,,,,,,,,,,,,,,,,,,,,,,411.8459564000368,411.8459564000368,411.8459564000368,411.8459564000368,411.8459564000368,0.009087600046768785,411.8459564000368,True,-0.08611111111111111,-0.4166666666666667,1,0,0,ansTwo,,,,,,,,,,,,,,,,,001,2022-11-01_20h41.16.054,musicalMathTest,2022.2.4,60.12871151996619,
music\active\vocals\Believe It (90) by Ty Magenta.wav,believe it,active,vocals,2,90,multiply,5,19,95,102,96,100,0,3,3,5,0,13,13,112,,,,,,,,,,,,,,,,,,,,,,,,,,,,,,,414.8795917000389,414.8795917000389,414.8795917000389,414.8795917000389,414.8795917000389,0.009191000019200146,414.8795917000389,True,0.09074074074074075,-0.4027777777777778,1,0,0,ansThree,,,,,,,,,,,,,,,,,001,2022-11-01_20h41.16.054,musicalMathTest,2022.2.4,60.12871151996619,
music\active\vocals\Believe It (90) by Ty Magenta.wav,believe it,active,vocals,2,90,add,58,11,69,73,79,83,0,3,3,5,0,14,14,29,,,,,,,,,,,,,,,,,,,,,,,,,,,,,,,418.19716540002264,418.19716540002264,418.19716540002264,418.19716540002264,418.19716540002264,0.01267359999474138,418.19716540002264,True,0.09074074074074075,-0.4027777777777778,1,0,0,ansThree,,,,,,,,,,,,,,,,,001,2022-11-01_20h41.16.054,musicalMathTest,2022.2.4,60.12871151996619,
music\active\vocals\Believe It (90) by Ty Magenta.wav,believe it,active,vocals,2,90,add,53,11,64,68,67,71,0,3,3,5,0,15,15,17,,,,,,,,,,,,,,,,,,,,,,,,,,,,,,,421.01262339996174,421.01262339996174,421.01262339996174,421.01262339996174,421.01262339996174,0.009529900038614869,421.01262339996174,True,-0.11203703703703703,-0.40555555555555556,1,0,0,ansTwo,,,,,,,,,,,,,,,,,001,2022-11-01_20h41.16.054,musicalMathTest,2022.2.4,60.12871151996619,
music\active\vocals\Believe It (90) by Ty Magenta.wav,believe it,active,vocals,2,90,subtract,54,53,1,4,9,13,0,3,3,5,0,16,16,45,,,,,,,,,,,,,,,,,,,,,,,,,,,,,,,424.86142740002833,424.86142740002833,424.86142740002833,424.86142740002833,424.86142740002833,0.009812399977818131,424.86142740002833,True,-0.2962962962962963,-0.40370370370370373,1,0,0,ansOne,,,,,,,,,,,,,,,,,001,2022-11-01_20h41.16.054,musicalMathTest,2022.2.4,60.12871151996619,
music\active\vocals\Believe It (90) by Ty Magenta.wav,believe it,active,vocals,2,90,subtract,44,26,18,22,25,8,0,3,3,5,0,17,17,49,,,,,,,,,,,,,,,,,,,,,,,,,,,,,,,428.46129929996096,428.46129929996096,428.46129929996096,428.46129929996096,428.46129929996096,0.009990999940782785,428.46129929996096,True,-0.2953703703703704,-0.4,1,0,0,ansOne,,,,,,,,,,,,,,,,,001,2022-11-01_20h41.16.054,musicalMathTest,2022.2.4,60.12871151996619,
music\active\vocals\Believe It (90) by Ty Magenta.wav,believe it,active,vocals,2,90,multiply,5,6,30,31,38,37,0,3,3,5,0,18,18,111,,,,,,,,,,,,,,,,,,,,,,,,,,,,,,,437.91028780001216,437.91028780001216,437.91028780001216,437.91028780001216,437.91028780001216,0.010597400018014014,437.91028780001216,True,-0.2953703703703704,-0.3990740740740741,1,0,0,ansOne,,,,,,,,,,,,,,,,,001,2022-11-01_20h41.16.054,musicalMathTest,2022.2.4,60.12871151996619,
music\active\vocals\Believe It (90) by Ty Magenta.wav,believe it,active,vocals,2,90,add,54,11,65,71,68,75,0,3,3,5,0,19,19,25,,,,,,,,,,,,,,,,,,,,,,,,,,,,,,,439.3764435000485,439.3764435000485,439.3764435000485,439.3764435000485,439.3764435000485,0.00958600000012666,439.3764435000485,True,-0.2972222222222222,-0.3972222222222222,1,0,0,ansOne,,,,,,,,,,,,,,,,,001,2022-11-01_20h41.16.054,musicalMathTest,2022.2.4,60.12871151996619,
music\active\vocals\Believe It (90) by Ty Magenta.wav,believe it,active,vocals,2,90,multiply,5,14,70,71,78,75,0,3,3,5,0,20,20,70,,,,,,,,,,,,,,,,,,,,,,,,,,,,,,,443.5924996000249,443.5924996000249,443.5924996000249,443.5924996000249,443.5924996000249,0.009619500022381544,443.5924996000249,True,-0.08888888888888889,-0.4111111111111111,1,0,0,ansTwo,,,,,,,,,,,,,,,,,001,2022-11-01_20h41.16.054,musicalMathTest,2022.2.4,60.12871151996619,
music\active\vocals\Believe It (90) by Ty Magenta.wav,believe it,active,vocals,2,90,subtract,53,11,42,49,45,46,0,3,3,5,0,21,21,48,,,,,,,,,,,,,,,,,,,,,,,,,,,,,,,454.45772659999784,454.45772659999784,454.45772659999784,454.45772659999784,454.45772659999784,0.009363199933432043,454.45772659999784,True,0.10555555555555556,-0.4046296296296296,1,0,0,ansThree,,,,,,,,,,,,,,,,,001,2022-11-01_20h41.16.054,musicalMathTest,2022.2.4,60.12871151996619,
music\calm\instrumentals\You and Me (90) (Instrumental) by Bridge City Revival.wav,you and me,calm,instrumental,2,90,multiply,10,11,110,114,116,120,0,4,4,2,0,0,0,65,,,,,,,,,,,,,,,,,,,,,,,,470.73953700007405,0.009812099975533783,0.612037037037037,-0.2361111111111111,1,0,0,483.3135086999973,483.3135086999973,483.3135086999973,483.3135086999973,483.3135086999973,0.027561099966987967,483.3135086999973,True,-0.09259259259259259,-0.3888888888888889,1,0,0,ansTwo,465.7344207999995,470.73953700007405,,,,,,,,,,,,,,,001,2022-11-01_20h41.16.054,musicalMathTest,2022.2.4,60.12871151996619,
music\calm\instrumentals\You and Me (90) (Instrumental) by Bridge City Revival.wav,you and me,calm,instrumental,2,90,multiply,10,11,110,120,111,116,0,4,4,2,0,1,1,105,,,,,,,,,,,,,,,,,,,,,,,,,,,,,,,489.4339899000479,489.4339899000479,489.4339899000479,489.4339899000479,489.4339899000479,0.007369300001300871,489.4339899000479,True,0.09444444444444444,-0.39814814814814814,1,0,0,ansThree,,,,,,,,,,,,,,,,,001,2022-11-01_20h41.16.054,musicalMathTest,2022.2.4,60.12871151996619,
music\calm\instrumentals\You and Me (90) (Instrumental) by Bridge City Revival.wav,you and me,calm,instrumental,2,90,add,44,26,70,77,79,78,0,4,4,2,0,2,2,18,,,,,,,,,,,,,,,,,,,,,,,,,,,,,,,493.9030807999661,493.9030807999661,493.9030807999661,493.9030807999661,493.9030807999661,0.010684499982744455,493.9030807999661,True,-0.08981481481481482,-0.3925925925925926,1,0,0,ansTwo,,,,,,,,,,,,,,,,,001,2022-11-01_20h41.16.054,musicalMathTest,2022.2.4,60.12871151996619,
music\calm\instrumentals\You and Me (90) (Instrumental) by Bridge City Revival.wav,you and me,calm,instrumental,2,90,subtract,44,26,18,22,25,8,0,4,4,2,0,3,3,49,,,,,,,,,,,,,,,,,,,,,,,,,,,,,,,500.4917518000584,500.4917518000584,500.4917518000584,500.4917518000584,500.4917518000584,0.01567069999873638,500.4917518000584,True,0.11018518518518519,-0.40555555555555556,1,0,0,ansThree,,,,,,,,,,,,,,,,,001,2022-11-01_20h41.16.054,musicalMathTest,2022.2.4,60.12871151996619,
music\calm\instrumentals\You and Me (90) (Instrumental) by Bridge City Revival.wav,you and me,calm,instrumental,2,90,multiply,10,14,140,150,148,141,0,4,4,2,0,4,4,102,,,,,,,,,,,,,,,,,,,,,,,,,,,,,,,506.8351303000236,506.8351303000236,506.8351303000236,506.8351303000236,506.8351303000236,0.010249300044961274,506.8351303000236,True,-0.10462962962962963,-0.40370370370370373,1,0,0,ansTwo,,,,,,,,,,,,,,,,,001,2022-11-01_20h41.16.054,musicalMathTest,2022.2.4,60.12871151996619,
music\calm\instrumentals\You and Me (90) (Instrumental) by Bridge City Revival.wav,you and me,calm,instrumental,2,90,subtract,54,26,28,18,33,37,0,4,4,2,0,5,5,53,,,,,,,,,,,,,,,,,,,,,,,,,,,,,,,508.1013934999937,508.1013934999937,508.1013934999937,508.1013934999937,508.1013934999937,0.009765699971467257,508.1013934999937,True,0.10648148148148148,-0.4101851851851852,1,0,0,ansThree,,,,,,,,,,,,,,,,,001,2022-11-01_20h41.16.054,musicalMathTest,2022.2.4,60.12871151996619,
music\calm\instrumentals\You and Me (90) (Instrumental) by Bridge City Revival.wav,you and me,calm,instrumental,2,90,multiply,10,19,190,192,194,195,0,4,4,2,0,6,6,64,,,,,,,,,,,,,,,,,,,,,,,,,,,,,,,512.5837323999731,512.5837323999731,512.5837323999731,512.5837323999731,512.5837323999731,0.009313800022937357,512.5837323999731,True,-0.08611111111111111,-0.40555555555555556,1,0,0,ansTwo,,,,,,,,,,,,,,,,,001,2022-11-01_20h41.16.054,musicalMathTest,2022.2.4,60.12871151996619,
music\calm\instrumentals\You and Me (90) (Instrumental) by Bridge City Revival.wav,you and me,calm,instrumental,2,90,add,57,54,111,115,118,112,0,4,4,2,0,7,7,9,,,,,,,,,,,,,,,,,,,,,,,,,,,,,,,513.7002104000421,513.7002104000421,513.7002104000421,513.7002104000421,513.7002104000421,0.009822800057008862,513.7002104000421,True,0.11666666666666667,-0.40555555555555556,1,0,0,ansThree,,,,,,,,,,,,,,,,,001,2022-11-01_20h41.16.054,musicalMathTest,2022.2.4,60.12871151996619,
music\calm\instrumentals\You and Me (90) (Instrumental) by Bridge City Revival.wav,you and me,calm,instrumental,2,90,multiply,11,5,55,58,56,62,0,4,4,2,0,8,8,101,,,,,,,,,,,,,,,,,,,,,,,,,,,,,,,518.0997582999989,518.0997582999989,518.0997582999989,518.0997582999989,518.0997582999989,0.0099727000342682,518.0997582999989,True,-0.3138888888888889,-0.39444444444444443,1,0,0,ansOne,,,,,,,,,,,,,,,,,001,2022-11-01_20h41.16.054,musicalMathTest,2022.2.4,60.12871151996619,
music\calm\instrumentals\You and Me (90) (Instrumental) by Bridge City Revival.wav,you and me,calm,instrumental,2,90,subtract,57,53,4,9,10,9,0,4,4,2,0,9,9,32,,,,,,,,,,,,,,,,,,,,,,,,,,,,,,,519.931394000072,519.931394000072,519.931394000072,519.931394000072,519.931394000072,0.009721199981868267,519.931394000072,True,-0.29444444444444445,-0.4,1,0,0,ansOne,,,,,,,,,,,,,,,,,001,2022-11-01_20h41.16.054,musicalMathTest,2022.2.4,60.12871151996619,
music\calm\instrumentals\You and Me (90) (Instrumental) by Bridge City Revival.wav,you and me,calm,instrumental,2,90,multiply,10,14,140,143,148,143,0,4,4,2,0,10,10,94,,,,,,,,,,,,,,,,,,,,,,,,,,,,,,,527.1984831000445,527.1984831000445,527.1984831000445,527.1984831000445,527.1984831000445,0.010373700060881674,527.1984831000445,True,0.10277777777777777,-0.3972222222222222,1,0,0,ansThree,,,,,,,,,,,,,,,,,001,2022-11-01_20h41.16.054,musicalMathTest,2022.2.4,60.12871151996619,
music\calm\instrumentals\You and Me (90) (Instrumental) by Bridge City Revival.wav,you and me,calm,instrumental,2,90,subtract,58,21,37,38,44,42,0,4,4,2,0,11,11,47,,,,,,,,,,,,,,,,,,,,,,,,,,,,,,,528.7646696000593,528.7646696000593,528.7646696000593,528.7646696000593,528.7646696000593,0.00928090000525117,528.7646696000593,True,-0.08703703703703704,-0.4,1,0,0,ansTwo,,,,,,,,,,,,,,,,,001,2022-11-01_20h41.16.054,musicalMathTest,2022.2.4,60.12871151996619,
music\calm\instrumentals\You and Me (90) (Instrumental) by Bridge City Revival.wav,you and me,calm,instrumental,2,90,multiply,5,14,70,71,78,75,0,4,4,2,0,12,12,70,,,,,,,,,,,,,,,,,,,,,,,,,,,,,,,533.1234305000398,533.1234305000398,533.1234305000398,533.1234305000398,533.1234305000398,0.019799700006842613,533.1234305000398,True,-0.09722222222222222,-0.3962962962962963,1,0,0,ansTwo,,,,,,,,,,,,,,,,,001,2022-11-01_20h41.16.054,musicalMathTest,2022.2.4,60.12871151996619,
music\calm\instrumentals\You and Me (90) (Instrumental) by Bridge City Revival.wav,you and me,calm,instrumental,2,90,multiply,19,5,95,101,100,97,0,4,4,2,0,13,13,100,,,,,,,,,,,,,,,,,,,,,,,,,,,,,,,541.5624426000286,541.5624426000286,541.5624426000286,541.5624426000286,541.5624426000286,0.008827900048345327,541.5624426000286,True,0.10092592592592593,-0.4083333333333333,1,0,0,ansThree,,,,,,,,,,,,,,,,,001,2022-11-01_20h41.16.054,musicalMathTest,2022.2.4,60.12871151996619,
music\calm\instrumentals\You and Me (90) (Instrumental) by Bridge City Revival.wav,you and me,calm,instrumental,2,90,multiply,10,11,110,115,118,115,0,4,4,2,0,14,14,97,,,,,,,,,,,,,,,,,,,,,,,,,,,,,,,546.5296320000198,546.5296320000198,546.5296320000198,546.5296320000198,546.5296320000198,0.01043629995547235,546.5296320000198,True,-0.09537037037037037,-0.3990740740740741,1,0,0,ansTwo,,,,,,,,,,,,,,,,,001,2022-11-01_20h41.16.054,musicalMathTest,2022.2.4,60.12871151996619,
music\calm\instrumentals\You and Me (90) (Instrumental) by Bridge City Revival.wav,you and me,calm,instrumental,2,90,add,60,58,118,122,119,123,0,4,4,2,0,15,15,0,,,,,,,,,,,,,,,,,,,,,,,,,,,,,,,548.4450986000011,548.4450986000011,548.4450986000011,548.4450986000011,548.4450986000011,0.00940219999756664,548.4450986000011,True,0.1259259259259259,-0.3962962962962963,1,0,0,ansThree,,,,,,,,,,,,,,,,,001,2022-11-01_20h41.16.054,musicalMathTest,2022.2.4,60.12871151996619,
music\calm\instrumentals\You and Me (90) (Instrumental) by Bridge City Revival.wav,you and me,calm,instrumental,2,90,subtract,56,54,2,8,5,9,0,4,4,2,0,16,16,34,,,,,,,,,,,,,,,,,,,,,,,,,,,,,,,552.9118306000018,552.9118306000018,552.9118306000018,552.9118306000018,552.9118306000018,0.009390399907715619,552.9118306000018,True,-0.09444444444444444,-0.3972222222222222,1,0,0,ansTwo,,,,,,,,,,,,,,,,,001,2022-11-01_20h41.16.054,musicalMathTest,2022.2.4,60.12871151996619,
music\calm\instrumentals\You and Me (90) (Instrumental) by Bridge City Revival.wav,you and me,calm,instrumental,2,90,subtract,58,11,47,50,49,37,0,4,4,2,0,17,17,60,,,,,,,,,,,,,,,,,,,,,,,,,,,,,,,556.9113647000631,556.9113647000631,556.9113647000631,556.9113647000631,556.9113647000631,0.009533099946565926,556.9113647000631,True,-0.2898148148148148,-0.3907407407407407,1,0,0,ansOne,,,,,,,,,,,,,,,,,001,2022-11-01_20h41.16.054,musicalMathTest,2022.2.4,60.12871151996619,
music\calm\instrumentals\You and Me (90) (Instrumental) by Bridge City Revival.wav,you and me,calm,instrumental,2,90,multiply,10,14,140,147,144,150,0,4,4,2,0,18,18,62,,,,,,,,,,,,,,,,,,,,,,,,,,,,,,,561.7120978999883,561.7120978999883,561.7120978999883,561.7120978999883,561.7120978999883,0.011853299918584526,561.7120978999883,True,-0.2898148148148148,-0.3907407407407407,1,0,0,ansOne,,,,,,,,,,,,,,,,,001,2022-11-01_20h41.16.054,musicalMathTest,2022.2.4,60.12871151996619,
music\calm\instrumentals\You and Me (90) (Instrumental) by Bridge City Revival.wav,you and me,calm,instrumental,2,90,multiply,5,11,55,60,61,65,0,4,4,2,0,19,19,113,,,,,,,,,,,,,,,,,,,,,,,,,,,,,,,562.826277300017,562.826277300017,562.826277300017,562.826277300017,562.826277300017,0.009487199946306646,562.826277300017,True,0.09537037037037037,-0.39351851851851855,1,0,0,ansThree,,,,,,,,,,,,,,,,,001,2022-11-01_20h41.16.054,musicalMathTest,2022.2.4,60.12871151996619,
music\calm\instrumentals\You and Me (90) (Instrumental) by Bridge City Revival.wav,you and me,calm,instrumental,2,90,add,58,21,79,85,82,83,0,4,4,2,0,20,20,16,,,,,,,,,,,,,,,,,,,,,,,,,,,,,,,565.0945498000365,565.0945498000365,565.0945498000365,565.0945498000365,565.0945498000365,0.012138199992477894,565.0945498000365,True,-0.30833333333333335,-0.4064814814814815,1,0,0,ansOne,,,,,,,,,,,,,,,,,001,2022-11-01_20h41.16.054,musicalMathTest,2022.2.4,60.12871151996619,
music\calm\instrumentals\You and Me (90) (Instrumental) by Bridge City Revival.wav,you and me,calm,instrumental,2,90,add,62,58,120,122,124,127,0,4,4,2,0,21,21,13,,,,,,,,,,,,,,,,,,,,,,,,,,,,,,,570.5102878999896,570.5102878999896,570.5102878999896,570.5102878999896,570.5102878999896,0.343475200003013,570.5102878999896,True,0.11203703703703703,-0.4046296296296296,1,0,0,ansThree,,,,,,,,,,,,,,,,,001,2022-11-01_20h41.16.054,musicalMathTest,2022.2.4,60.12871151996619,
music\calm\instrumentals\Brand New Feelings (90) (Instrumental) by Land of Legs.wav,brand new feelings,calm,instrumental,2,90,multiply,10,14,140,150,148,141,0,5,5,6,0,0,0,102,,,,,,,,,,,,,,,,,,,,,,,,581.5585769000463,0.012464699917472899,0.1537037037037037,-0.3972222222222222,1,0,0,590.5524577000178,590.5524577000178,590.5524577000178,590.5524577000178,590.5524577000178,0.030872900038957596,590.5524577000178,True,-0.287962962962963,-0.4,1,0,0,ansOne,576.5534579000669,581.5585769000463,,,,,,,,,,,,,,,001,2022-11-01_20h41.16.054,musicalMathTest,2022.2.4,60.12871151996619,
music\calm\instrumentals\Brand New Feelings (90) (Instrumental) by Land of Legs.wav,brand new feelings,calm,instrumental,2,90,add,58,54,112,117,118,114,0,5,5,6,0,1,1,6,,,,,,,,,,,,,,,,,,,,,,,,,,,,,,,596.1222110000672,596.1222110000672,596.1222110000672,596.1222110000672,596.1222110000672,0.009289699955843389,596.1222110000672,True,0.11296296296296296,-0.4,1,0,0,ansThree,,,,,,,,,,,,,,,,,001,2022-11-01_20h41.16.054,musicalMathTest,2022.2.4,60.12871151996619,
music\calm\instrumentals\Brand New Feelings (90) (Instrumental) by Land of Legs.wav,brand new feelings,calm,instrumental,2,90,add,58,13,71,79,76,80,0,5,5,6,0,2,2,23,,,,,,,,,,,,,,,,,,,,,,,,,,,,,,,606.3876683000708,606.3876683000708,606.3876683000708,606.3876683000708,606.3876683000708,0.010180499986745417,606.3876683000708,True,-0.09259259259259259,-0.4,1,0,0,ansTwo,,,,,,,,,,,,,,,,,001,2022-11-01_20h41.16.054,musicalMathTest,2022.2.4,60.12871151996619,
music\calm\instrumentals\Brand New Feelings (90) (Instrumental) by Land of Legs.wav,brand new feelings,calm,instrumental,2,90,subtract,53,13,40,45,46,48,0,5,5,6,0,3,3,58,,,,,,,,,,,,,,,,,,,,,,,,,,,,,,,611.9213898000307,611.9213898000307,611.9213898000307,611.9213898000307,611.9213898000307,0.00927619996946305,611.9213898000307,True,-0.09814814814814815,-0.40925925925925927,1,0,0,ansTwo,,,,,,,,,,,,,,,,,001,2022-11-01_20h41.16.054,musicalMathTest,2022.2.4,60.12871151996619,
music\calm\instrumentals\Brand New Feelings (90) (Instrumental) by Land of Legs.wav,brand new feelings,calm,instrumental,2,90,subtract,56,54,2,8,5,9,0,5,5,6,0,4,4,34,,,,,,,,,,,,,,,,,,,,,,,,,,,,,,,616.2859769000206,616.2859769000206,616.2859769000206,616.2859769000206,616.2859769000206,0.009083900018595159,616.2859769000206,True,0.09814814814814815,-0.4064814814814815,1,0,0,ansThree,,,,,,,,,,,,,,,,,001,2022-11-01_20h41.16.054,musicalMathTest,2022.2.4,60.12871151996619,
music\calm\instrumentals\Brand New Feelings (90) (Instrumental) by Land of Legs.wav,brand new feelings,calm,instrumental,2,90,multiply,10,6,60,65,67,68,0,5,5,6,0,5,5,63,,,,,,,,,,,,,,,,,,,,,,,,,,,,,,,628.0851249999832,628.0851249999832,628.0851249999832,628.0851249999832,628.0851249999832,0.009396599954925478,628.0851249999832,True,-0.2962962962962963,-0.4027777777777778,1,0,0,ansOne,,,,,,,,,,,,,,,,,001,2022-11-01_20h41.16.054,musicalMathTest,2022.2.4,60.12871151996619,
music\calm\instrumentals\Brand New Feelings (90) (Instrumental) by Land of Legs.wav,brand new feelings,calm,instrumental,2,90,subtract,60,58,2,7,9,4,0,5,5,6,0,6,6,31,,,,,,,,,,,,,,,,,,,,,,,,,,,,,,,630.251439500018,630.251439500018,630.251439500018,630.251439500018,630.251439500018,0.00929570000153035,630.251439500018,True,0.0962962962962963,-0.3990740740740741,1,0,0,ansThree,,,,,,,,,,,,,,,,,001,2022-11-01_20h41.16.054,musicalMathTest,2022.2.4,60.12871151996619,
music\calm\instrumentals\Brand New Feelings (90) (Instrumental) by Land of Legs.wav,brand new feelings,calm,instrumental,2,90,subtract,63,58,5,10,9,8,0,5,5,6,0,7,7,41,,,,,,,,,,,,,,,,,,,,,,,,,,,,,,,633.7341350000352,633.7341350000352,633.7341350000352,633.7341350000352,633.7341350000352,0.009447399992495775,633.7341350000352,True,0.0962962962962963,-0.4009259259259259,1,0,0,ansThree,,,,,,,,,,,,,,,,,001,2022-11-01_20h41.16.054,musicalMathTest,2022.2.4,60.12871151996619,
music\calm\instrumentals\Brand New Feelings (90) (Instrumental) by Land of Legs.wav,brand new feelings,calm,instrumental,2,90,subtract,46,44,2,4,7,4,0,5,5,6,0,8,8,39,,,,,,,,,,,,,,,,,,,,,,,,,,,,,,,639.3841809000587,639.3841809000587,639.3841809000587,639.3841809000587,639.3841809000587,0.00919629994314164,639.3841809000587,True,-0.10833333333333334,-0.4,1,0,0,ansTwo,,,,,,,,,,,,,,,,,001,2022-11-01_20h41.16.054,musicalMathTest,2022.2.4,60.12871151996619,
music\calm\instrumentals\Brand New Feelings (90) (Instrumental) by Land of Legs.wav,brand new feelings,calm,instrumental,2,90,add,56,53,109,116,112,116,0,5,5,6,0,9,9,11,,,,,,,,,,,,,,,,,,,,,,,,,,,,,,,643.5326095999917,643.5326095999917,643.5326095999917,643.5326095999917,643.5326095999917,0.009626999963074923,643.5326095999917,True,0.09814814814814815,-0.3990740740740741,1,0,0,ansThree,,,,,,,,,,,,,,,,,001,2022-11-01_20h41.16.054,musicalMathTest,2022.2.4,60.12871151996619,
music\calm\instrumentals\Brand New Feelings (90) (Instrumental) by Land of Legs.wav,brand new feelings,calm,instrumental,2,90,multiply,19,2,38,43,41,46,0,5,5,6,0,10,10,116,,,,,,,,,,,,,,,,,,,,,,,,,,,,,,,649.2166627000552,649.2166627000552,649.2166627000552,649.2166627000552,649.2166627000552,0.009146700031124055,649.2166627000552,True,-0.09907407407407408,-0.4027777777777778,1,0,0,ansTwo,,,,,,,,,,,,,,,,,001,2022-11-01_20h41.16.054,musicalMathTest,2022.2.4,60.12871151996619,
music\calm\instrumentals\Brand New Feelings (90) (Instrumental) by Land of Legs.wav,brand new feelings,calm,instrumental,2,90,multiply,10,6,60,63,62,61,0,5,5,6,0,11,11,103,,,,,,,,,,,,,,,,,,,,,,,,,,,,,,,653.9479198000627,653.9479198000627,653.9479198000627,653.9479198000627,653.9479198000627,0.009706999990157783,653.9479198000627,True,-0.29814814814814816,-0.3990740740740741,1,0,0,ansOne,,,,,,,,,,,,,,,,,001,2022-11-01_20h41.16.054,musicalMathTest,2022.2.4,60.12871151996619,
music\calm\instrumentals\Brand New Feelings (90) (Instrumental) by Land of Legs.wav,brand new feelings,calm,instrumental,2,90,add,54,26,80,81,83,87,0,5,5,6,0,12,12,22,,,,,,,,,,,,,,,,,,,,,,,,,,,,,,,655.8148794000736,655.8148794000736,655.8148794000736,655.8148794000736,655.8148794000736,0.009676099987700582,655.8148794000736,True,0.10648148148148148,-0.3962962962962963,1,0,0,ansThree,,,,,,,,,,,,,,,,,001,2022-11-01_20h41.16.054,musicalMathTest,2022.2.4,60.12871151996619,
music\calm\instrumentals\Brand New Feelings (90) (Instrumental) by Land of Legs.wav,brand new feelings,calm,instrumental,2,90,multiply,5,14,70,77,74,75,0,5,5,6,0,13,13,110,,,,,,,,,,,,,,,,,,,,,,,,,,,,,,,660.8642477999674,660.8642477999674,660.8642477999674,660.8642477999674,660.8642477999674,0.009406100027263165,660.8642477999674,True,-0.2972222222222222,-0.39166666666666666,1,0,0,ansOne,,,,,,,,,,,,,,,,,001,2022-11-01_20h41.16.054,musicalMathTest,2022.2.4,60.12871151996619,
music\calm\instrumentals\Brand New Feelings (90) (Instrumental) by Land of Legs.wav,brand new feelings,calm,instrumental,2,90,multiply,11,10,110,112,114,115,0,5,5,6,0,14,14,77,,,,,,,,,,,,,,,,,,,,,,,,,,,,,,,665.5138522000052,665.5138522000052,665.5138522000052,665.5138522000052,665.5138522000052,0.009690799983218312,665.5138522000052,True,0.10833333333333334,-0.40370370370370373,1,0,0,ansThree,,,,,,,,,,,,,,,,,001,2022-11-01_20h41.16.054,musicalMathTest,2022.2.4,60.12871151996619,
music\calm\instrumentals\Brand New Feelings (90) (Instrumental) by Land of Legs.wav,brand new feelings,calm,instrumental,2,90,add,54,21,75,82,78,77,0,5,5,6,0,15,15,28,,,,,,,,,,,,,,,,,,,,,,,,,,,,,,,667.463264400023,667.463264400023,667.463264400023,667.463264400023,667.463264400023,0.009643299970775843,667.463264400023,True,-0.2935185185185185,-0.3990740740740741,1,0,0,ansOne,,,,,,,,,,,,,,,,,001,2022-11-01_20h41.16.054,musicalMathTest,2022.2.4,60.12871151996619,
music\calm\instrumentals\Brand New Feelings (90) (Instrumental) by Land of Legs.wav,brand new feelings,calm,instrumental,2,90,subtract,53,21,32,40,35,40,0,5,5,6,0,16,16,51,,,,,,,,,,,,,,,,,,,,,,,,,,,,,,,672.8795710999984,672.8795710999984,672.8795710999984,672.8795710999984,672.8795710999984,0.009836899931542575,672.8795710999984,True,-0.2972222222222222,-0.3962962962962963,1,0,0,ansOne,,,,,,,,,,,,,,,,,001,2022-11-01_20h41.16.054,musicalMathTest,2022.2.4,60.12871151996619,
music\calm\instrumentals\Brand New Feelings (90) (Instrumental) by Land of Legs.wav,brand new feelings,calm,instrumental,2,90,multiply,10,19,190,197,199,191,0,5,5,6,0,17,17,80,,,,,,,,,,,,,,,,,,,,,,,,,,,,,,,677.8293402000563,677.8293402000563,677.8293402000563,677.8293402000563,677.8293402000563,0.009858999983407557,677.8293402000563,True,-0.3,-0.3990740740740741,1,0,0,ansOne,,,,,,,,,,,,,,,,,001,2022-11-01_20h41.16.054,musicalMathTest,2022.2.4,60.12871151996619,
music\calm\instrumentals\Brand New Feelings (90) (Instrumental) by Land of Legs.wav,brand new feelings,calm,instrumental,2,90,multiply,14,5,70,73,77,75,0,5,5,6,0,18,18,98,,,,,,,,,,,,,,,,,,,,,,,,,,,,,,,680.0783359999768,680.0783359999768,680.0783359999768,680.0783359999768,680.0783359999768,0.009247899986803532,680.0783359999768,True,-0.10462962962962963,-0.3990740740740741,1,0,0,ansTwo,,,,,,,,,,,,,,,,,001,2022-11-01_20h41.16.054,musicalMathTest,2022.2.4,60.12871151996619,
music\silence.wav,silent,silent,silent,2,90,subtract,57,54,3,5,7,5,0,6,6,4,0,0,0,40,,,,,,,,,,,,,,,,,,,,,,,,688.6503736000741,0.04383790004067123,0.3490740740740741,-0.2574074074074074,1,0,0,691.969799799961,691.969799799961,691.969799799961,691.969799799961,691.969799799961,0.027580399997532368,691.969799799961,True,-0.3037037037037037,-0.40925925925925927,1,0,0,ansOne,683.6094801999861,,,,,,,,,,,,,,,,001,2022-11-01_20h41.16.054,musicalMathTest,2022.2.4,60.12871151996619,
music\silence.wav,silent,silent,silent,2,90,add,44,44,88,91,93,95,0,6,6,4,0,1,1,5,,,,,,,,,,,,,,,,,,,,,,,,,,,,,,,706.6081601000624,706.6081601000624,706.6081601000624,706.6081601000624,706.6081601000624,0.009221600019373,706.6081601000624,True,0.08425925925925926,-0.40925925925925927,1,0,0,ansThree,,,,,,,,,,,,,,,,,001,2022-11-01_20h41.16.054,musicalMathTest,2022.2.4,60.12871151996619,
music\silence.wav,silent,silent,silent,2,90,multiply,19,10,190,198,200,195,0,6,6,4,0,2,2,92,,,,,,,,,,,,,,,,,,,,,,,,,,,,,,,709.9085278999992,709.9085278999992,709.9085278999992,709.9085278999992,709.9085278999992,0.0102410000981763,709.9085278999992,True,0.10925925925925926,-0.4046296296296296,1,0,0,ansThree,,,,,,,,,,,,,,,,,001,2022-11-01_20h41.16.054,musicalMathTest,2022.2.4,60.12871151996619,
music\silence.wav,silent,silent,silent,2,90,multiply,6,10,60,61,62,66,0,6,6,4,0,3,3,67,,,,,,,,,,,,,,,,,,,,,,,,,,,,,,,711.524432700011,711.524432700011,711.524432700011,711.524432700011,711.524432700011,0.009380499948747456,711.524432700011,True,0.10740740740740741,-0.4,1,0,0,ansThree,,,,,,,,,,,,,,,,,001,2022-11-01_20h41.16.054,musicalMathTest,2022.2.4,60.12871151996619,
music\silence.wav,silent,silent,silent,2,90,subtract,56,54,2,8,5,9,0,6,6,4,0,4,4,34,,,,,,,,,,,,,,,,,,,,,,,,,,,,,,,712.7740880000638,712.7740880000638,712.7740880000638,712.7740880000638,712.7740880000638,0.009362600045278668,712.7740880000638,True,0.09074074074074075,-0.4074074074074074,1,0,0,ansThree,,,,,,,,,,,,,,,,,001,2022-11-01_20h41.16.054,musicalMathTest,2022.2.4,60.12871151996619,
music\silence.wav,silent,silent,silent,2,90,subtract,54,54,0,1,3,2,0,6,6,4,0,5,5,43,,,,,,,,,,,,,,,,,,,,,,,,,,,,,,,717.1064336000709,717.1064336000709,717.1064336000709,717.1064336000709,717.1064336000709,0.008693900075741112,717.1064336000709,True,0.30462962962962964,-0.4009259259259259,1,0,0,ansFour,,,,,,,,,,,,,,,,,001,2022-11-01_20h41.16.054,musicalMathTest,2022.2.4,60.12871151996619,
music\silence.wav,silent,silent,silent,2,90,subtract,57,53,4,9,10,9,0,6,6,4,0,6,6,32,,,,,,,,,,,,,,,,,,,,,,,,,,,,,,,720.1726981999818,720.1726981999818,720.1726981999818,720.1726981999818,720.1726981999818,0.009127600002102554,720.1726981999818,True,-0.30185185185185187,-0.4009259259259259,1,0,0,ansOne,,,,,,,,,,,,,,,,,001,2022-11-01_20h41.16.054,musicalMathTest,2022.2.4,60.12871151996619,
music\silence.wav,silent,silent,silent,2,90,multiply,14,10,140,144,148,141,0,6,6,4,0,7,7,90,,,,,,,,,,,,,,,,,,,,,,,,,,,,,,,727.9055614999961,727.9055614999961,727.9055614999961,727.9055614999961,727.9055614999961,0.009728299919515848,727.9055614999961,True,-0.29259259259259257,-0.4,1,0,0,ansOne,,,,,,,,,,,,,,,,,001,2022-11-01_20h41.16.054,musicalMathTest,2022.2.4,60.12871151996619,
music\silence.wav,silent,silent,silent,2,90,subtract,58,54,4,9,8,7,0,6,6,4,0,8,8,37,,,,,,,,,,,,,,,,,,,,,,,,,,,,,,,729.5225052000023,729.5225052000023,729.5225052000023,729.5225052000023,729.5225052000023,0.009435700019821525,729.5225052000023,True,-0.30462962962962964,-0.40185185185185185,1,0,0,ansOne,,,,,,,,,,,,,,,,,001,2022-11-01_20h41.16.054,musicalMathTest,2022.2.4,60.12871151996619,
music\silence.wav,silent,silent,silent,2,90,add,58,13,71,79,76,80,0,6,6,4,0,9,9,23,,,,,,,,,,,,,,,,,,,,,,,,,,,,,,,732.5049343999708,732.5049343999708,732.5049343999708,732.5049343999708,732.5049343999708,0.009376900037750602,732.5049343999708,True,0.11018518518518519,-0.4074074074074074,1,0,0,ansThree,,,,,,,,,,,,,,,,,001,2022-11-01_20h41.16.054,musicalMathTest,2022.2.4,60.12871151996619,
music\silence.wav,silent,silent,silent,2,90,multiply,11,10,110,120,117,113,0,6,6,4,0,10,10,109,,,,,,,,,,,,,,,,,,,,,,,,,,,,,,,738.120403500041,738.120403500041,738.120403500041,738.120403500041,738.120403500041,0.009791800053790212,738.120403500041,True,-0.3074074074074074,-0.40370370370370373,1,0,0,ansOne,,,,,,,,,,,,,,,,,001,2022-11-01_20h41.16.054,musicalMathTest,2022.2.4,60.12871151996619,
music\silence.wav,silent,silent,silent,2,90,multiply,2,6,12,20,22,15,0,6,6,4,0,11,11,87,,,,,,,,,,,,,,,,,,,,,,,,,,,,,,,740.5538710000692,740.5538710000692,740.5538710000692,740.5538710000692,740.5538710000692,0.00944069994147867,740.5538710000692,True,0.09907407407407408,-0.4064814814814815,1,0,0,ansThree,,,,,,,,,,,,,,,,,001,2022-11-01_20h41.16.054,musicalMathTest,2022.2.4,60.12871151996619,
music\silence.wav,silent,silent,silent,2,90,multiply,19,2,38,43,41,46,0,6,6,4,0,12,12,116,,,,,,,,,,,,,,,,,,,,,,,,,,,,,,,742.120190900052,742.120190900052,742.120190900052,742.120190900052,742.120190900052,0.009735100087709725,742.120190900052,True,-0.2953703703703704,-0.3972222222222222,1,0,0,ansOne,,,,,,,,,,,,,,,,,001,2022-11-01_20h41.16.054,musicalMathTest,2022.2.4,60.12871151996619,
music\silence.wav,silent,silent,silent,2,90,subtract,44,11,33,39,23,37,0,6,6,4,0,13,13,52,,,,,,,,,,,,,,,,,,,,,,,,,,,,,,,747.3693087999709,747.3693087999709,747.3693087999709,747.3693087999709,747.3693087999709,0.009193100035190582,747.3693087999709,True,0.1037037037037037,-0.3962962962962963,1,0,0,ansThree,,,,,,,,,,,,,,,,,001,2022-11-01_20h41.16.054,musicalMathTest,2022.2.4,60.12871151996619,
music\silence.wav,silent,silent,silent,2,90,subtract,63,58,5,7,10,11,0,6,6,4,0,14,14,38,,,,,,,,,,,,,,,,,,,,,,,,,,,,,,,755.7517598000122,755.7517598000122,755.7517598000122,755.7517598000122,755.7517598000122,0.009930899948813021,755.7517598000122,True,-0.10462962962962963,-0.4148148148148148,1,0,0,ansTwo,,,,,,,,,,,,,,,,,001,2022-11-01_20h41.16.054,musicalMathTest,2022.2.4,60.12871151996619,
music\silence.wav,silent,silent,silent,2,90,subtract,58,53,5,11,7,13,0,6,6,4,0,15,15,35,,,,,,,,,,,,,,,,,,,,,,,,,,,,,,,761.6846666999627,761.6846666999627,761.6846666999627,761.6846666999627,761.6846666999627,0.0094395000487566,761.6846666999627,True,0.10185185185185185,-0.4046296296296296,1,0,0,ansThree,,,,,,,,,,,,,,,,,001,2022-11-01_20h41.16.054,musicalMathTest,2022.2.4,60.12871151996619,
music\silence.wav,silent,silent,silent,2,90,subtract,58,26,32,38,39,43,0,6,6,4,0,16,16,57,,,,,,,,,,,,,,,,,,,,,,,,,,,,,,,767.3173325000098,767.3173325000098,767.3173325000098,767.3173325000098,767.3173325000098,0.009662399999797344,767.3173325000098,True,0.09907407407407408,-0.40555555555555556,1,0,0,ansThree,,,,,,,,,,,,,,,,,001,2022-11-01_20h41.16.054,musicalMathTest,2022.2.4,60.12871151996619,
music\silence.wav,silent,silent,silent,2,90,multiply,10,6,60,66,63,64,0,6,6,4,0,17,17,95,,,,,,,,,,,,,,,,,,,,,,,,,,,,,,,772.3331172000617,772.3331172000617,772.3331172000617,772.3331172000617,772.3331172000617,0.009233899996615946,772.3331172000617,True,0.09907407407407408,-0.40555555555555556,1,0,0,ansThree,,,,,,,,,,,,,,,,,001,2022-11-01_20h41.16.054,musicalMathTest,2022.2.4,60.12871151996619,
music\silence.wav,silent,silent,silent,2,90,subtract,62,58,4,5,9,6,0,6,6,4,0,18,18,44,,,,,,,,,,,,,,,,,,,,,,,,,,,,,,,775.9325188000221,775.9325188000221,775.9325188000221,775.9325188000221,775.9325188000221,0.009986300021409988,775.9325188000221,True,0.09907407407407408,-0.40555555555555556,1,0,0,ansThree,,,,,,,,,,,,,,,,,001,2022-11-01_20h41.16.054,musicalMathTest,2022.2.4,60.12871151996619,
music\silence.wav,silent,silent,silent,2,90,add,53,11,64,68,67,71,0,6,6,4,0,19,19,17,,,,,,,,,,,,,,,,,,,,,,,,,,,,,,,780.1499290000647,780.1499290000647,780.1499290000647,780.1499290000647,780.1499290000647,0.009327100007794797,780.1499290000647,True,-0.29074074074074074,-0.40925925925925927,1,0,0,ansOne,,,,,,,,,,,,,,,,,001,2022-11-01_20h41.16.054,musicalMathTest,2022.2.4,60.12871151996619,
music\calm\vocals\Younger Then (90) by Allebasi.wav,younger then,calm,vocals,2,90,multiply,5,19,95,102,96,100,0,7,7,3,0,0,0,72,,,,,,,,,,,,,,,,,,,,,,,,788.9155801000306,0.012620799941942096,-0.07222222222222222,-0.19722222222222222,1,0,0,809.505772100063,809.505772100063,809.505772100063,809.505772100063,809.505772100063,0.0265400999924168,809.505772100063,True,-0.10092592592592593,-0.4,1,0,0,ansTwo,783.9104223999893,788.9155801000306,,,,,,,,,,,,,,,001,2022-11-01_20h41.16.054,musicalMathTest,2022.2.4,60.12871151996619,
music\calm\vocals\Younger Then (90) by Allebasi.wav,younger then,calm,vocals,2,90,subtract,62,58,4,5,9,6,0,7,7,3,0,1,1,44,,,,,,,,,,,,,,,,,,,,,,,,,,,,,,,815.643753600074,815.643753600074,815.643753600074,815.643753600074,815.643753600074,0.00873849994968623,815.643753600074,True,0.09444444444444444,-0.3990740740740741,1,0,0,ansThree,,,,,,,,,,,,,,,,,001,2022-11-01_20h41.16.054,musicalMathTest,2022.2.4,60.12871151996619,
music\calm\vocals\Younger Then (90) by Allebasi.wav,younger then,calm,vocals,2,90,subtract,54,54,0,1,3,2,0,7,7,3,0,2,2,43,,,,,,,,,,,,,,,,,,,,,,,,,,,,,,,824.4780424999772,824.4780424999772,824.4780424999772,824.4780424999772,824.4780424999772,0.012294700019992888,824.4780424999772,True,-0.1037037037037037,-0.40185185185185185,1,0,0,ansTwo,,,,,,,,,,,,,,,,,001,2022-11-01_20h41.16.054,musicalMathTest,2022.2.4,60.12871151996619,
music\calm\vocals\Younger Then (90) by Allebasi.wav,younger then,calm,vocals,2,90,subtract,54,13,41,49,42,45,0,7,7,3,0,3,3,50,,,,,,,,,,,,,,,,,,,,,,,,,,,,,,,826.5763536000159,826.5763536000159,826.5763536000159,826.5763536000159,826.5763536000159,0.009285199921578169,826.5763536000159,True,-0.09166666666666666,-0.40185185185185185,1,0,0,ansTwo,,,,,,,,,,,,,,,,,001,2022-11-01_20h41.16.054,musicalMathTest,2022.2.4,60.12871151996619,
music\calm\vocals\Younger Then (90) by Allebasi.wav,younger then,calm,vocals,2,90,multiply,5,19,95,102,96,100,0,7,7,3,0,4,4,112,,,,,,,,,,,,,,,,,,,,,,,,,,,,,,,830.8819569000043,830.8819569000043,830.8819569000043,830.8819569000043,830.8819569000043,0.016218600096181035,830.8819569000043,True,-0.3055555555555556,-0.3962962962962963,1,0,0,ansOne,,,,,,,,,,,,,,,,,001,2022-11-01_20h41.16.054,musicalMathTest,2022.2.4,60.12871151996619,
music\calm\vocals\Younger Then (90) by Allebasi.wav,younger then,calm,vocals,2,90,multiply,2,14,28,29,31,30,0,7,7,3,0,5,5,86,,,,,,,,,,,,,,,,,,,,,,,,,,,,,,,833.79559600004,833.79559600004,833.79559600004,833.79559600004,833.79559600004,0.013375599985010922,833.79559600004,True,-0.10740740740740741,-0.40555555555555556,1,0,0,ansTwo,,,,,,,,,,,,,,,,,001,2022-11-01_20h41.16.054,musicalMathTest,2022.2.4,60.12871151996619,
music\calm\vocals\Younger Then (90) by Allebasi.wav,younger then,calm,vocals,2,90,multiply,10,6,60,65,67,68,0,7,7,3,0,6,6,63,,,,,,,,,,,,,,,,,,,,,,,,,,,,,,,835.5250254999846,835.5250254999846,835.5250254999846,835.5250254999846,835.5250254999846,0.009761099936440587,835.5250254999846,True,0.09814814814814815,-0.4,1,0,0,ansThree,,,,,,,,,,,,,,,,,001,2022-11-01_20h41.16.054,musicalMathTest,2022.2.4,60.12871151996619,
music\calm\vocals\Younger Then (90) by Allebasi.wav,younger then,calm,vocals,2,90,multiply,19,10,190,195,197,195,0,7,7,3,0,7,7,68,,,,,,,,,,,,,,,,,,,,,,,,,,,,,,,836.7914973000297,836.7914973000297,836.7914973000297,836.7914973000297,836.7914973000297,0.009501099935732782,836.7914973000297,True,-0.10185185185185185,-0.4027777777777778,1,0,0,ansTwo,,,,,,,,,,,,,,,,,001,2022-11-01_20h41.16.054,musicalMathTest,2022.2.4,60.12871151996619,
music\calm\vocals\Younger Then (90) by Allebasi.wav,younger then,calm,vocals,2,90,subtract,53,21,32,40,35,40,0,7,7,3,0,8,8,51,,,,,,,,,,,,,,,,,,,,,,,,,,,,,,,838.7749303000746,838.7749303000746,838.7749303000746,838.7749303000746,838.7749303000746,0.009816400008276105,838.7749303000746,True,0.10277777777777777,-0.4009259259259259,1,0,0,ansThree,,,,,,,,,,,,,,,,,001,2022-11-01_20h41.16.054,musicalMathTest,2022.2.4,60.12871151996619,
music\calm\vocals\Younger Then (90) by Allebasi.wav,younger then,calm,vocals,2,90,multiply,10,6,60,66,63,64,0,7,7,3,0,9,9,95,,,,,,,,,,,,,,,,,,,,,,,,,,,,,,,844.9906301000156,844.9906301000156,844.9906301000156,844.9906301000156,844.9906301000156,0.009090500068850815,844.9906301000156,True,0.09259259259259259,-0.4046296296296296,1,0,0,ansThree,,,,,,,,,,,,,,,,,001,2022-11-01_20h41.16.054,musicalMathTest,2022.2.4,60.12871151996619,
music\calm\vocals\Younger Then (90) by Allebasi.wav,younger then,calm,vocals,2,90,add,49,44,93,101,97,103,0,7,7,3,0,10,10,2,,,,,,,,,,,,,,,,,,,,,,,,,,,,,,,846.4246704999823,846.4246704999823,846.4246704999823,846.4246704999823,846.4246704999823,0.010482599958777428,846.4246704999823,True,-0.29074074074074074,-0.40370370370370373,1,0,0,ansOne,,,,,,,,,,,,,,,,,001,2022-11-01_20h41.16.054,musicalMathTest,2022.2.4,60.12871151996619,
music\calm\vocals\Younger Then (90) by Allebasi.wav,younger then,calm,vocals,2,90,add,60,58,118,122,119,123,0,7,7,3,0,11,11,0,,,,,,,,,,,,,,,,,,,,,,,,,,,,,,,852.5222811000422,852.5222811000422,852.5222811000422,852.5222811000422,852.5222811000422,0.009084500023163855,852.5222811000422,True,0.11018518518518519,-0.39814814814814814,1,0,0,ansThree,,,,,,,,,,,,,,,,,001,2022-11-01_20h41.16.054,musicalMathTest,2022.2.4,60.12871151996619,
music\calm\vocals\Younger Then (90) by Allebasi.wav,younger then,calm,vocals,2,90,add,44,44,88,91,93,95,0,7,7,3,0,12,12,5,,,,,,,,,,,,,,,,,,,,,,,,,,,,,,,859.4394446000224,859.4394446000224,859.4394446000224,859.4394446000224,859.4394446000224,0.009980499977245927,859.4394446000224,True,0.11018518518518519,-0.39814814814814814,1,0,0,ansThree,,,,,,,,,,,,,,,,,001,2022-11-01_20h41.16.054,musicalMathTest,2022.2.4,60.12871151996619,
music\calm\vocals\Younger Then (90) by Allebasi.wav,younger then,calm,vocals,2,90,subtract,44,21,23,28,30,24,0,7,7,3,0,13,13,55,,,,,,,,,,,,,,,,,,,,,,,,,,,,,,,860.5882309000008,860.5882309000008,860.5882309000008,860.5882309000008,860.5882309000008,0.009392400039359927,860.5882309000008,True,-0.09166666666666666,-0.3990740740740741,1,0,0,ansTwo,,,,,,,,,,,,,,,,,001,2022-11-01_20h41.16.054,musicalMathTest,2022.2.4,60.12871151996619,
music\calm\vocals\Younger Then (90) by Allebasi.wav,younger then,calm,vocals,2,90,subtract,57,54,3,5,7,5,0,7,7,3,0,14,14,40,,,,,,,,,,,,,,,,,,,,,,,,,,,,,,,864.7381942999782,864.7381942999782,864.7381942999782,864.7381942999782,864.7381942999782,0.009355699992738664,864.7381942999782,True,0.09259259259259259,-0.40370370370370373,1,0,0,ansThree,,,,,,,,,,,,,,,,,001,2022-11-01_20h41.16.054,musicalMathTest,2022.2.4,60.12871151996619,
music\calm\vocals\Younger Then (90) by Allebasi.wav,younger then,calm,vocals,2,90,subtract,44,11,33,39,23,37,0,7,7,3,0,15,15,52,,,,,,,,,,,,,,,,,,,,,,,,,,,,,,,870.1437884999905,870.1437884999905,870.1437884999905,870.1437884999905,870.1437884999905,0.016176600009202957,870.1437884999905,True,0.09259259259259259,-0.40370370370370373,1,0,0,ansThree,,,,,,,,,,,,,,,,,001,2022-11-01_20h41.16.054,musicalMathTest,2022.2.4,60.12871151996619,
music\calm\vocals\Younger Then (90) by Allebasi.wav,younger then,calm,vocals,2,90,add,53,26,79,80,87,80,0,7,7,3,0,16,16,30,,,,,,,,,,,,,,,,,,,,,,,,,,,,,,,871.6205529000144,871.6205529000144,871.6205529000144,871.6205529000144,871.6205529000144,0.010131699964404106,871.6205529000144,True,-0.10277777777777777,-0.4074074074074074,1,0,0,ansTwo,,,,,,,,,,,,,,,,,001,2022-11-01_20h41.16.054,musicalMathTest,2022.2.4,60.12871151996619,
music\calm\vocals\Younger Then (90) by Allebasi.wav,younger then,calm,vocals,2,90,subtract,54,26,28,18,33,37,0,7,7,3,0,17,17,53,,,,,,,,,,,,,,,,,,,,,,,,,,,,,,,879.7354181000264,879.7354181000264,879.7354181000264,879.7354181000264,879.7354181000264,0.008837200002744794,879.7354181000264,True,-0.31296296296296294,-0.40555555555555556,1,0,0,ansOne,,,,,,,,,,,,,,,,,001,2022-11-01_20h41.16.054,musicalMathTest,2022.2.4,60.12871151996619,
music\calm\vocals\Younger Then (90) by Allebasi.wav,younger then,calm,vocals,2,90,subtract,60,58,2,7,9,4,0,7,7,3,0,18,18,31,,,,,,,,,,,,,,,,,,,,,,,,,,,,,,,885.5522504000692,885.5522504000692,885.5522504000692,885.5522504000692,885.5522504000692,0.009718200075440109,885.5522504000692,True,-0.10648148148148148,-0.40370370370370373,1,0,0,ansTwo,,,,,,,,,,,,,,,,,001,2022-11-01_20h41.16.054,musicalMathTest,2022.2.4,60.12871151996619,
music\calm\vocals\Younger Then (90) by Allebasi.wav,younger then,calm,vocals,2,90,subtract,44,44,0,5,3,1,0,7,7,3,0,19,19,36,,,,,,,,,,,,,,,,,,,,,,,,,,,,,,,892.5670441000257,892.5670441000257,892.5670441000257,892.5670441000257,892.5670441000257,0.008955099969170988,892.5670441000257,True,-0.1037037037037037,-0.40370370370370373,1,0,0,ansTwo,,,,,,,,,,,,,,,,,001,2022-11-01_20h41.16.054,musicalMathTest,2022.2.4,60.12871151996619,
music\calm\vocals\Younger Then (90) by Allebasi.wav,younger then,calm,vocals,2,90,multiply,14,5,70,76,77,71,0,7,7,3,0,20,20,82,,,,,,,,,,,,,,,,,,,,,,,,,,,,,,,894.3678762000054,894.3678762000054,894.3678762000054,894.3678762000054,894.3678762000054,0.009730400051921606,894.3678762000054,True,-0.10185185185185185,-0.4074074074074074,1,0,0,ansTwo,,,,,,,,,,,,,,,,,001,2022-11-01_20h41.16.054,musicalMathTest,2022.2.4,60.12871151996619,
music\calm\vocals\Younger Then (90) by Allebasi.wav,younger then,calm,vocals,2,90,subtract,56,54,2,8,5,9,0,7,7,3,0,21,21,34,,,,,,,,,,,,,,,,,,,,,,,,,,,,,,,899.3666768000694,899.3666768000694,899.3666768000694,899.3666768000694,899.3666768000694,0.008943599998019636,899.3666768000694,True,-0.2953703703703704,-0.4074074074074074,1,0,0,ansOne,,,,,,,,,,,,,,,,,001,2022-11-01_20h41.16.054,musicalMathTest,2022.2.4,60.12871151996619,
music\calm\vocals\Rose Gold (90) by Cabri x Sub Q Taneous.wav,rose gold,calm,vocals,2,90,subtract,54,26,28,18,33,37,0,8,8,8,0,0,0,53,,,,,,,,,,,,,,,,,,,,,,,,909.4335205999669,0.012548899976536632,0.03611111111111111,-0.35,1,0,0,941.8266621000366,941.8266621000366,941.8266621000366,941.8266621000366,941.8266621000366,0.03057719999924302,941.8266621000366,True,0.11666666666666667,-0.4009259259259259,1,0,0,ansThree,904.4276122000301,909.4335205999669,,,,,,,,,,,,,,,001,2022-11-01_20h41.16.054,musicalMathTest,2022.2.4,60.12871151996619,
music\calm\vocals\Rose Gold (90) by Cabri x Sub Q Taneous.wav,rose gold,calm,vocals,2,90,subtract,54,13,41,49,42,45,0,8,8,8,0,1,1,50,,,,,,,,,,,,,,,,,,,,,,,,,,,,,,,950.0435630000429,950.0435630000429,950.0435630000429,950.0435630000429,950.0435630000429,0.009484900045208633,950.0435630000429,True,-0.29907407407407405,-0.39351851851851855,1,0,0,ansOne,,,,,,,,,,,,,,,,,001,2022-11-01_20h41.16.054,musicalMathTest,2022.2.4,60.12871151996619,
music\calm\vocals\Rose Gold (90) by Cabri x Sub Q Taneous.wav,rose gold,calm,vocals,2,90,multiply,5,19,95,102,96,100,0,8,8,8,0,2,2,112,,,,,,,,,,,,,,,,,,,,,,,,,,,,,,,963.9426074000075,963.9426074000075,963.9426074000075,963.9426074000075,963.9426074000075,0.010321900015696883,963.9426074000075,True,-0.30462962962962964,-0.38981481481481484,1,0,0,ansOne,,,,,,,,,,,,,,,,,001,2022-11-01_20h41.16.054,musicalMathTest,2022.2.4,60.12871151996619,
music\calm\vocals\Rose Gold (90) by Cabri x Sub Q Taneous.wav,rose gold,calm,vocals,2,90,multiply,14,2,28,34,38,42,0,8,8,8,0,3,3,114,,,,,,,,,,,,,,,,,,,,,,,,,,,,,,,966.5250380999641,966.5250380999641,966.5250380999641,966.5250380999641,966.5250380999641,0.009324499987997115,966.5250380999641,True,-0.3074074074074074,-0.39537037037037037,1,0,0,ansOne,,,,,,,,,,,,,,,,,001,2022-11-01_20h41.16.054,musicalMathTest,2022.2.4,60.12871151996619,
music\calm\vocals\Rose Gold (90) by Cabri x Sub Q Taneous.wav,rose gold,calm,vocals,2,90,multiply,10,11,110,115,118,115,0,8,8,8,0,4,4,97,,,,,,,,,,,,,,,,,,,,,,,,,,,,,,,968.4413970999885,968.4413970999885,968.4413970999885,968.4413970999885,968.4413970999885,0.01009260001592338,968.4413970999885,True,0.10462962962962963,-0.4074074074074074,1,0,0,ansThree,,,,,,,,,,,,,,,,,001,2022-11-01_20h41.16.054,musicalMathTest,2022.2.4,60.12871151996619,
music\calm\vocals\Rose Gold (90) by Cabri x Sub Q Taneous.wav,rose gold,calm,vocals,2,90,multiply,2,19,38,41,44,46,0,8,8,8,0,5,5,88,,,,,,,,,,,,,,,,,,,,,,,,,,,,,,,970.7906134000514,970.7906134000514,970.7906134000514,970.7906134000514,970.7906134000514,0.009394399938173592,970.7906134000514,True,0.09166666666666666,-0.40185185185185185,1,0,0,ansThree,,,,,,,,,,,,,,,,,001,2022-11-01_20h41.16.054,musicalMathTest,2022.2.4,60.12871151996619,
music\calm\vocals\Rose Gold (90) by Cabri x Sub Q Taneous.wav,rose gold,calm,vocals,2,90,subtract,54,11,43,33,48,52,0,8,8,8,0,6,6,56,,,,,,,,,,,,,,,,,,,,,,,,,,,,,,,975.7419539999682,975.7419539999682,975.7419539999682,975.7419539999682,975.7419539999682,0.012650199932977557,975.7419539999682,True,0.09722222222222222,-0.4027777777777778,1,0,0,ansThree,,,,,,,,,,,,,,,,,001,2022-11-01_20h41.16.054,musicalMathTest,2022.2.4,60.12871151996619,
music\calm\vocals\Rose Gold (90) by Cabri x Sub Q Taneous.wav,rose gold,calm,vocals,2,90,multiply,19,5,95,101,100,97,0,8,8,8,0,7,7,100,,,,,,,,,,,,,,,,,,,,,,,,,,,,,,,980.6059537000256,980.6059537000256,980.6059537000256,980.6059537000256,980.6059537000256,0.00911319989245385,980.6059537000256,True,-0.2972222222222222,-0.39537037037037037,1,0,0,ansOne,,,,,,,,,,,,,,,,,001,2022-11-01_20h41.16.054,musicalMathTest,2022.2.4,60.12871151996619,
music\calm\vocals\Rose Gold (90) by Cabri x Sub Q Taneous.wav,rose gold,calm,vocals,2,90,add,58,21,79,85,82,83,0,8,8,8,0,8,8,16,,,,,,,,,,,,,,,,,,,,,,,,,,,,,,,983.5926628999878,983.5926628999878,983.5926628999878,983.5926628999878,983.5926628999878,0.014842799981124699,983.5926628999878,True,0.08796296296296297,-0.3972222222222222,1,0,0,ansThree,,,,,,,,,,,,,,,,,001,2022-11-01_20h41.16.054,musicalMathTest,2022.2.4,60.12871151996619,
music\calm\vocals\Rose Gold (90) by Cabri x Sub Q Taneous.wav,rose gold,calm,vocals,2,90,multiply,14,10,140,144,148,141,0,8,8,8,0,9,9,90,,,,,,,,,,,,,,,,,,,,,,,,,,,,,,,989.1379347000038,989.1379347000038,989.1379347000038,989.1379347000038,989.1379347000038,0.00958910002373159,989.1379347000038,True,-0.09814814814814815,-0.40185185185185185,1,0,0,ansTwo,,,,,,,,,,,,,,,,,001,2022-11-01_20h41.16.054,musicalMathTest,2022.2.4,60.12871151996619,
music\calm\vocals\Rose Gold (90) by Cabri x Sub Q Taneous.wav,rose gold,calm,vocals,2,90,subtract,62,58,4,5,9,6,0,8,8,8,0,10,10,44,,,,,,,,,,,,,,,,,,,,,,,,,,,,,,,991.0550904000411,991.0550904000411,991.0550904000411,991.0550904000411,991.0550904000411,0.009478399995714426,991.0550904000411,True,-0.09814814814814815,-0.3990740740740741,1,0,0,ansTwo,,,,,,,,,,,,,,,,,001,2022-11-01_20h41.16.054,musicalMathTest,2022.2.4,60.12871151996619,
music\calm\vocals\Rose Gold (90) by Cabri x Sub Q Taneous.wav,rose gold,calm,vocals,2,90,subtract,53,13,40,45,46,48,0,8,8,8,0,11,11,58,,,,,,,,,,,,,,,,,,,,,,,,,,,,,,,1005.5866068999749,1005.5866068999749,1005.5866068999749,1005.5866068999749,1005.5866068999749,0.00919609994161874,1005.5866068999749,True,-0.10185185185185185,-0.40185185185185185,1,0,0,ansTwo,,,,,,,,,,,,,,,,,001,2022-11-01_20h41.16.054,musicalMathTest,2022.2.4,60.12871151996619,
music\calm\vocals\Rose Gold (90) by Cabri x Sub Q Taneous.wav,rose gold,calm,vocals,2,90,subtract,58,21,37,38,44,42,0,8,8,8,0,12,12,47,,,,,,,,,,,,,,,,,,,,,,,,,,,,,,,1009.2858733000467,1009.2858733000467,1009.2858733000467,1009.2858733000467,1009.2858733000467,0.009459499968215823,1009.2858733000467,True,0.09444444444444444,-0.40185185185185185,1,0,0,ansThree,,,,,,,,,,,,,,,,,001,2022-11-01_20h41.16.054,musicalMathTest,2022.2.4,60.12871151996619,
music\calm\vocals\Rose Gold (90) by Cabri x Sub Q Taneous.wav,rose gold,calm,vocals,2,90,subtract,44,26,18,22,25,8,0,8,8,8,0,13,13,49,,,,,,,,,,,,,,,,,,,,,,,,,,,,,,,1026.0853396999883,1026.0853396999883,1026.0853396999883,1026.0853396999883,1026.0853396999883,0.01301150000654161,1026.0853396999883,True,0.09444444444444444,-0.40185185185185185,1,0,0,ansThree,,,,,,,,,,,,,,,,,001,2022-11-01_20h41.16.054,musicalMathTest,2022.2.4,60.12871151996619,
music\active\instrumentals\Like This (90) (Instrumental) by MUNNYCAT.wav,like this,active,instrumental,2,90,subtract,46,44,2,4,7,4,0,9,9,7,0,0,0,39,,,,,,,,,,,,,,,,,,,,,,,,1037.7665627000388,0.012886399985291064,0.006481481481481481,-0.22314814814814815,1,0,0,1040.607022400014,1040.607022400014,1040.607022400014,1040.607022400014,1040.607022400014,0.02753419999498874,1040.607022400014,True,0.0962962962962963,-0.4083333333333333,1,0,0,ansThree,1032.7611729999771,1037.7665627000388,,,,,,,,,,,,,,,001,2022-11-01_20h41.16.054,musicalMathTest,2022.2.4,60.12871151996619,
music\active\instrumentals\Like This (90) (Instrumental) by MUNNYCAT.wav,like this,active,instrumental,2,90,add,44,44,88,98,92,95,0,9,9,7,0,1,1,15,,,,,,,,,,,,,,,,,,,,,,,,,,,,,,,1048.1805086999666,1048.1805086999666,1048.1805086999666,1048.1805086999666,1048.1805086999666,0.009015699964947999,1048.1805086999666,True,-0.09074074074074075,-0.3925925925925926,1,0,0,ansTwo,,,,,,,,,,,,,,,,,001,2022-11-01_20h41.16.054,musicalMathTest,2022.2.4,60.12871151996619,
music\active\instrumentals\Like This (90) (Instrumental) by MUNNYCAT.wav,like this,active,instrumental,2,90,multiply,5,14,70,77,74,75,0,9,9,7,0,2,2,110,,,,,,,,,,,,,,,,,,,,,,,,,,,,,,,1050.0969180000247,1050.0969180000247,1050.0969180000247,1050.0969180000247,1050.0969180000247,0.009399999980814755,1050.0969180000247,True,-0.29444444444444445,-0.38981481481481484,1,0,0,ansOne,,,,,,,,,,,,,,,,,001,2022-11-01_20h41.16.054,musicalMathTest,2022.2.4,60.12871151996619,
music\active\instrumentals\Like This (90) (Instrumental) by MUNNYCAT.wav,like this,active,instrumental,2,90,multiply,6,10,60,61,68,70,0,9,9,7,0,3,3,75,,,,,,,,,,,,,,,,,,,,,,,,,,,,,,,1054.4129463999998,1054.4129463999998,1054.4129463999998,1054.4129463999998,1054.4129463999998,0.00914460001513362,1054.4129463999998,True,-0.2935185185185185,-0.3925925925925926,1,0,0,ansOne,,,,,,,,,,,,,,,,,001,2022-11-01_20h41.16.054,musicalMathTest,2022.2.4,60.12871151996619,
music\active\instrumentals\Like This (90) (Instrumental) by MUNNYCAT.wav,like this,active,instrumental,2,90,add,58,53,111,118,117,113,0,9,9,7,0,4,4,4,,,,,,,,,,,,,,,,,,,,,,,,,,,,,,,1055.7138059000717,1055.7138059000717,1055.7138059000717,1055.7138059000717,1055.7138059000717,0.010204399935901165,1055.7138059000717,True,0.09351851851851851,-0.4046296296296296,1,0,0,ansThree,,,,,,,,,,,,,,,,,001,2022-11-01_20h41.16.054,musicalMathTest,2022.2.4,60.12871151996619,
music\active\instrumentals\Like This (90) (Instrumental) by MUNNYCAT.wav,like this,active,instrumental,2,90,add,44,21,65,68,75,72,0,9,9,7,0,5,5,24,,,,,,,,,,,,,,,,,,,,,,,,,,,,,,,1061.2285572000546,1061.2285572000546,1061.2285572000546,1061.2285572000546,1061.2285572000546,0.009151899954304099,1061.2285572000546,True,0.09351851851851851,-0.4064814814814815,1,0,0,ansThree,,,,,,,,,,,,,,,,,001,2022-11-01_20h41.16.054,musicalMathTest,2022.2.4,60.12871151996619,
music\active\instrumentals\Like This (90) (Instrumental) by MUNNYCAT.wav,like this,active,instrumental,2,90,add,44,11,55,57,61,56,0,9,9,7,0,6,6,21,,,,,,,,,,,,,,,,,,,,,,,,,,,,,,,1067.2112498000497,1067.2112498000497,1067.2112498000497,1067.2112498000497,1067.2112498000497,0.009636700036935508,1067.2112498000497,True,-0.3101851851851852,-0.3925925925925926,1,0,0,ansOne,,,,,,,,,,,,,,,,,001,2022-11-01_20h41.16.054,musicalMathTest,2022.2.4,60.12871151996619,
music\active\instrumentals\Like This (90) (Instrumental) by MUNNYCAT.wav,like this,active,instrumental,2,90,multiply,14,10,140,144,146,143,0,9,9,7,0,7,7,66,,,,,,,,,,,,,,,,,,,,,,,,,,,,,,,1070.027667599963,1070.027667599963,1070.027667599963,1070.027667599963,1070.027667599963,0.009577299933880568,1070.027667599963,True,-0.3,-0.40185185185185185,1,0,0,ansOne,,,,,,,,,,,,,,,,,001,2022-11-01_20h41.16.054,musicalMathTest,2022.2.4,60.12871151996619,
music\active\instrumentals\Like This (90) (Instrumental) by MUNNYCAT.wav,like this,active,instrumental,2,90,multiply,10,6,60,66,63,64,0,9,9,7,0,8,8,95,,,,,,,,,,,,,,,,,,,,,,,,,,,,,,,1071.8106755999615,1071.8106755999615,1071.8106755999615,1071.8106755999615,1071.8106755999615,0.009339000098407269,1071.8106755999615,True,-0.0962962962962963,-0.41203703703703703,1,0,0,ansTwo,,,,,,,,,,,,,,,,,001,2022-11-01_20h41.16.054,musicalMathTest,2022.2.4,60.12871151996619,
music\active\instrumentals\Like This (90) (Instrumental) by MUNNYCAT.wav,like this,active,instrumental,2,90,subtract,60,58,2,7,9,4,0,9,9,7,0,9,9,31,,,,,,,,,,,,,,,,,,,,,,,,,,,,,,,1073.4775254999986,1073.4775254999986,1073.4775254999986,1073.4775254999986,1073.4775254999986,0.009195400052703917,1073.4775254999986,True,0.09259259259259259,-0.4027777777777778,1,0,0,ansThree,,,,,,,,,,,,,,,,,001,2022-11-01_20h41.16.054,musicalMathTest,2022.2.4,60.12871151996619,
music\active\instrumentals\Like This (90) (Instrumental) by MUNNYCAT.wav,like this,active,instrumental,2,90,subtract,44,21,23,28,30,24,0,9,9,7,0,10,10,55,,,,,,,,,,,,,,,,,,,,,,,,,,,,,,,1076.8774060000433,1076.8774060000433,1076.8774060000433,1076.8774060000433,1076.8774060000433,0.01037130004260689,1076.8774060000433,True,-0.09537037037037037,-0.40925925925925927,1,0,0,ansTwo,,,,,,,,,,,,,,,,,001,2022-11-01_20h41.16.054,musicalMathTest,2022.2.4,60.12871151996619,
music\active\instrumentals\Like This (90) (Instrumental) by MUNNYCAT.wav,like this,active,instrumental,2,90,subtract,58,21,37,38,44,42,0,9,9,7,0,11,11,47,,,,,,,,,,,,,,,,,,,,,,,,,,,,,,,1084.659266600036,1084.659266600036,1084.659266600036,1084.659266600036,1084.659266600036,0.00914890004787594,1084.659266600036,True,-0.3055555555555556,-0.40185185185185185,1,0,0,ansOne,,,,,,,,,,,,,,,,,001,2022-11-01_20h41.16.054,musicalMathTest,2022.2.4,60.12871151996619,
music\active\instrumentals\Like This (90) (Instrumental) by MUNNYCAT.wav,like this,active,instrumental,2,90,multiply,2,6,12,20,22,15,0,9,9,7,0,12,12,87,,,,,,,,,,,,,,,,,,,,,,,,,,,,,,,1091.4586362000555,1091.4586362000555,1091.4586362000555,1091.4586362000555,1091.4586362000555,0.009735699975863099,1091.4586362000555,True,0.09444444444444444,-0.4046296296296296,1,0,0,ansThree,,,,,,,,,,,,,,,,,001,2022-11-01_20h41.16.054,musicalMathTest,2022.2.4,60.12871151996619,
music\active\instrumentals\Like This (90) (Instrumental) by MUNNYCAT.wav,like this,active,instrumental,2,90,subtract,58,26,32,38,39,43,0,9,9,7,0,13,13,57,,,,,,,,,,,,,,,,,,,,,,,,,,,,,,,1093.4579190000659,1093.4579190000659,1093.4579190000659,1093.4579190000659,1093.4579190000659,0.008918599924072623,1093.4579190000659,True,0.09444444444444444,-0.4046296296296296,1,0,0,ansThree,,,,,,,,,,,,,,,,,001,2022-11-01_20h41.16.054,musicalMathTest,2022.2.4,60.12871151996619,
music\active\instrumentals\Like This (90) (Instrumental) by MUNNYCAT.wav,like this,active,instrumental,2,90,multiply,5,6,30,36,38,42,0,9,9,7,0,14,14,71,,,,,,,,,,,,,,,,,,,,,,,,,,,,,,,1098.2081983999815,1098.2081983999815,1098.2081983999815,1098.2081983999815,1098.2081983999815,0.010019200039096177,1098.2081983999815,True,0.10648148148148148,-0.3962962962962963,1,0,0,ansThree,,,,,,,,,,,,,,,,,001,2022-11-01_20h41.16.054,musicalMathTest,2022.2.4,60.12871151996619,
music\active\instrumentals\Like This (90) (Instrumental) by MUNNYCAT.wav,like this,active,instrumental,2,90,subtract,44,11,33,39,23,37,0,9,9,7,0,15,15,52,,,,,,,,,,,,,,,,,,,,,,,,,,,,,,,1100.2575365999946,1100.2575365999946,1100.2575365999946,1100.2575365999946,1100.2575365999946,0.009405700024217367,1100.2575365999946,True,-0.2972222222222222,-0.4009259259259259,1,0,0,ansOne,,,,,,,,,,,,,,,,,001,2022-11-01_20h41.16.054,musicalMathTest,2022.2.4,60.12871151996619,
music\active\instrumentals\Like This (90) (Instrumental) by MUNNYCAT.wav,like this,active,instrumental,2,90,multiply,6,5,30,34,31,33,0,9,9,7,0,16,16,83,,,,,,,,,,,,,,,,,,,,,,,,,,,,,,,1104.2233456000686,1104.2233456000686,1104.2233456000686,1104.2233456000686,1104.2233456000686,0.00976669997908175,1104.2233456000686,True,0.10740740740740741,-0.4027777777777778,1,0,0,ansThree,,,,,,,,,,,,,,,,,001,2022-11-01_20h41.16.054,musicalMathTest,2022.2.4,60.12871151996619,
music\active\instrumentals\Like This (90) (Instrumental) by MUNNYCAT.wav,like this,active,instrumental,2,90,add,58,21,79,85,82,83,0,9,9,7,0,17,17,16,,,,,,,,,,,,,,,,,,,,,,,,,,,,,,,1106.156358200009,1106.156358200009,1106.156358200009,1106.156358200009,1106.156358200009,0.009322399972006679,1106.156358200009,True,-0.30462962962962964,-0.39537037037037037,1,0,0,ansOne,,,,,,,,,,,,,,,,,001,2022-11-01_20h41.16.054,musicalMathTest,2022.2.4,60.12871151996619,
music\active\instrumentals\Like This (90) (Instrumental) by MUNNYCAT.wav,like this,active,instrumental,2,90,subtract,54,21,33,35,37,40,0,9,9,7,0,18,18,59,,,,,,,,,,,,,,,,,,,,,,,,,,,,,,,1111.4562942000339,1111.4562942000339,1111.4562942000339,1111.4562942000339,1111.4562942000339,0.01032690005376935,1111.4562942000339,True,0.11018518518518519,-0.4064814814814815,1,0,0,ansThree,,,,,,,,,,,,,,,,,001,2022-11-01_20h41.16.054,musicalMathTest,2022.2.4,60.12871151996619,
music\active\instrumentals\Like This (90) (Instrumental) by MUNNYCAT.wav,like this,active,instrumental,2,90,add,46,44,90,95,100,91,0,9,9,7,0,19,19,8,,,,,,,,,,,,,,,,,,,,,,,,,,,,,,,1116.7890039000195,1116.7890039000195,1116.7890039000195,1116.7890039000195,1116.7890039000195,0.009730599937029183,1116.7890039000195,True,-0.10555555555555556,-0.39814814814814814,1,0,0,ansTwo,,,,,,,,,,,,,,,,,001,2022-11-01_20h41.16.054,musicalMathTest,2022.2.4,60.12871151996619,
music\active\instrumentals\Like This (90) (Instrumental) by MUNNYCAT.wav,like this,active,instrumental,2,90,subtract,44,26,18,22,25,8,0,9,9,7,0,20,20,49,,,,,,,,,,,,,,,,,,,,,,,,,,,,,,,1121.2716310999822,1121.2716310999822,1121.2716310999822,1121.2716310999822,1121.2716310999822,0.0098365000449121,1121.2716310999822,True,-0.29074074074074074,-0.40185185185185185,1,0,0,ansOne,,,,,,,,,,,,,,,,,001,2022-11-01_20h41.16.054,musicalMathTest,2022.2.4,60.12871151996619,
music\active\instrumentals\Like This (90) (Instrumental) by MUNNYCAT.wav,like this,active,instrumental,2,90,multiply,10,19,190,192,194,195,0,9,9,7,0,21,21,64,,,,,,,,,,,,,,,,,,,,,,,,,,,,,,,1126.2878332000691,1126.2878332000691,1126.2878332000691,1126.2878332000691,1126.2878332000691,0.009988600038923323,1126.2878332000691,True,0.11388888888888889,-0.4009259259259259,1,0,0,ansThree,,,,,,,,,,,,,,,,,001,2022-11-01_20h41.16.054,musicalMathTest,2022.2.4,60.12871151996619,
music\active\instrumentals\Like This (90) (Instrumental) by MUNNYCAT.wav,like this,active,instrumental,2,90,add,58,11,69,73,79,83,0,9,9,7,0,22,22,29,,,,,,,,,,,,,,,,,,,,,,,,,,,,,,,1128.8538498000707,1128.8538498000707,1128.8538498000707,1128.8538498000707,1128.8538498000707,0.009497400023974478,1128.8538498000707,True,-0.09351851851851851,-0.3962962962962963,1,0,0,ansTwo,,,,,,,,,,,,,,,,,001,2022-11-01_20h41.16.054,musicalMathTest,2022.2.4,60.12871151996619,
,,,,,,,,,,,,,,,,,,,,,,,,,,,,,,,,,,,,,,,,,,,,,,,,,,,,,,,,,,,,,,,,,1134.0315356999636,1139.0308089000173,1139.0308089000173,0.013042200007475913,0.39537037037037037,-0.262037037037037,1,0,0,,,,,,,,001,2022-11-01_20h41.16.054,musicalMathTest,2022.2.4,60.12871151996619,
,,,,,,,,,,,,,,,,,,,,,,,,,,,,,,,,,,,,,,,,,,,,,,,,,,,,,,,,,,,,,,,,,,,,,,,,,,1145.7302206000313,2.210005186498165e-05,0.39537037037037037,-0.262037037037037,1,0,0,001,2022-11-01_20h41.16.054,musicalMathTest,2022.2.4,60.12871151996619,
