songfilename,SongName,Speed,Condition,fileblock,testdurationsec,songCondFile,CategoryType,NumOne,NumTwo,Correct,Incorrect1,Incorrect2,Incorrect3,musicTypeLoop.thisRepN,musicTypeLoop.thisTrialN,musicTypeLoop.thisN,musicTypeLoop.thisIndex,trialsMath.thisRepN,trialsMath.thisTrialN,trialsMath.thisN,trialsMath.thisIndex,partInfoImage.started,partinfomouse.started,partinfomouse.x,partinfomouse.y,partinfomouse.leftButton,partinfomouse.midButton,partinfomouse.rightButton,partInfoImage_2.started,partinfomouse_2.started,consentBox.started,partinfomouse_2.x,partinfomouse_2.y,partinfomouse_2.leftButton,partinfomouse_2.midButton,partinfomouse_2.rightButton,partinfomouse_2.clicked_name,partInfoImage_3.started,partinfomouse_3.started,partinfomouse_3.x,partinfomouse_3.y,partinfomouse_3.leftButton,partinfomouse_3.midButton,partinfomouse_3.rightButton,partInfoImage_4.started,partinfomouse_4.started,partinfomouse_4.x,partinfomouse_4.y,partinfomouse_4.leftButton,partinfomouse_4.midButton,partinfomouse_4.rightButton,question.started,ansOne.started,ansTwo.started,ansThree.started,ansFour.started,mouseclickResponse.started,debuginfo.started,correctClick,mouseclickResponse.x,mouseclickResponse.y,mouseclickResponse.leftButton,mouseclickResponse.midButton,mouseclickResponse.rightButton,mouseclickResponse.clicked_name,text.started,text.stopped,partInfoImage_5.started,partinfomouse_5.started,partinfomouse_5.x,partinfomouse_5.y,partinfomouse_5.leftButton,partinfomouse_5.midButton,partinfomouse_5.rightButton,partInfoImage_6.started,partinfomouse_6.started,partinfomouse_6.x,partinfomouse_6.y,partinfomouse_6.leftButton,partinfomouse_6.midButton,partinfomouse_6.rightButton,session,date,expName,psychopyVersion,frameRate
,,,,,,,,,,,,,,,,,,,,,,,,,,,,,,,,,,,,,,,,,,,,,,,,,,,,,,,,,,,,,,,,,,,,,,,,,,,,,,,,,,,,,,
,,,,,,,,,,,,,,,,,,,,,,,,,,,,,,,,,,,,,,,,,,,,,,,,,,,,,,,,,,,,,,,,,,,,,,,,,,,,,,,,,,,,,,
,,,,,,,,,,,,,,,,,,,,,,,,,,,,,,,,,,,,,,,,,,,,,,,,,,,,,,,,,,,,,,,,,,,,,,,,,,,,,,,,,,,,,,
music\active\vocals\Soda Pop (feat. Hot Air Balloon) (90) by Stony Pony.wav,soda pop,active,vocals,1,90,A,add,46,43,89,92,91,99,0,3,3,0,0,0,0,2,,,,,,,,,,,,,,,,,,,,,,,,327.8437044,0.0036792,0.019444444,-0.024074074,1,0,0,329.1272225,329.1272225,329.1272225,329.1272225,329.1272225,0.0171598,329.1272225,TRUE,0.115740741,-0.411111111,1,0,0,ansThree,322.843581,327.8437044,,,,,,,,,,,,,,,5,2022-10-29_20h35.14.991,musicalMathTest,2022.2.4,59.97317999
music\active\vocals\Soda Pop (feat. Hot Air Balloon) (90) by Stony Pony.wav,soda pop,active,vocals,1,90,A,subtract,25,14,11,13,18,13,0,3,3,0,0,1,1,32,,,,,,,,,,,,,,,,,,,,,,,,,,,,,,,346.7952369,346.7952369,346.7952369,346.7952369,346.7952369,0.0051037,346.7952369,TRUE,0.098148148,-0.408333333,1,0,0,ansThree,,,,,,,,,,,,,,,,,5,2022-10-29_20h35.14.991,musicalMathTest,2022.2.4,59.97317999
music\active\vocals\Soda Pop (feat. Hot Air Balloon) (90) by Stony Pony.wav,soda pop,active,vocals,1,90,A,add,49,22,71,76,81,76,0,3,3,0,0,2,2,16,,,,,,,,,,,,,,,,,,,,,,,,,,,,,,,360.3794991,360.3794991,360.3794991,360.3794991,360.3794991,0.0056388,360.3794991,TRUE,-0.101851852,-0.401851852,1,0,0,ansTwo,,,,,,,,,,,,,,,,,5,2022-10-29_20h35.14.991,musicalMathTest,2022.2.4,59.97317999
music\active\vocals\Soda Pop (feat. Hot Air Balloon) (90) by Stony Pony.wav,soda pop,active,vocals,1,90,A,multiply,2,5,10,11,18,12,0,3,3,0,0,3,3,99,,,,,,,,,,,,,,,,,,,,,,,,,,,,,,,368.479935,368.479935,368.479935,368.479935,368.479935,0.0051207,368.479935,TRUE,-0.298148148,-0.393518519,1,0,0,ansOne,,,,,,,,,,,,,,,,,5,2022-10-29_20h35.14.991,musicalMathTest,2022.2.4,59.97317999
music\active\vocals\Soda Pop (feat. Hot Air Balloon) (90) by Stony Pony.wav,soda pop,active,vocals,1,90,A,subtract,48,43,5,7,10,14,0,3,3,0,0,4,4,46,,,,,,,,,,,,,,,,,,,,,,,,,,,,,,,376.1806388,376.1806388,376.1806388,376.1806388,376.1806388,0.0050385,376.1806388,TRUE,-0.29537037,-0.412037037,1,0,0,ansOne,,,,,,,,,,,,,,,,,5,2022-10-29_20h35.14.991,musicalMathTest,2022.2.4,59.97317999
music\active\vocals\Soda Pop (feat. Hot Air Balloon) (90) by Stony Pony.wav,soda pop,active,vocals,1,90,A,multiply,12,10,120,124,123,128,0,3,3,0,0,5,5,66,,,,,,,,,,,,,,,,,,,,,,,,,,,,,,,391.36504,391.36504,391.36504,391.36504,391.36504,0.0050189,391.36504,TRUE,0.1,-0.399074074,1,0,0,ansThree,,,,,,,,,,,,,,,,,5,2022-10-29_20h35.14.991,musicalMathTest,2022.2.4,59.97317999
music\active\vocals\Soda Pop (feat. Hot Air Balloon) (90) by Stony Pony.wav,soda pop,active,vocals,1,90,A,subtract,50,50,0,7,5,8,0,3,3,0,0,6,6,37,,,,,,,,,,,,,,,,,,,,,,,,,,,,,,,392.8651572,392.8651572,392.8651572,392.8651572,392.8651572,0.0054047,392.8651572,TRUE,-0.100925926,-0.402777778,1,0,0,ansTwo,,,,,,,,,,,,,,,,,5,2022-10-29_20h35.14.991,musicalMathTest,2022.2.4,59.97317999
music\active\vocals\Soda Pop (feat. Hot Air Balloon) (90) by Stony Pony.wav,soda pop,active,vocals,1,90,A,subtract,22,22,0,5,4,5,0,3,3,0,0,7,7,51,,,,,,,,,,,,,,,,,,,,,,,,,,,,,,,395.4320649,395.4320649,395.4320649,395.4320649,395.4320649,0.004968,395.4320649,TRUE,-0.1,-0.405555556,1,0,0,ansTwo,,,,,,,,,,,,,,,,,5,2022-10-29_20h35.14.991,musicalMathTest,2022.2.4,59.97317999
music\active\vocals\Soda Pop (feat. Hot Air Balloon) (90) by Stony Pony.wav,soda pop,active,vocals,1,90,A,multiply,21,5,105,107,109,113,0,3,3,0,0,8,8,85,,,,,,,,,,,,,,,,,,,,,,,,,,,,,,,396.7820636,396.7820636,396.7820636,396.7820636,396.7820636,0.0055155,396.7820636,TRUE,-0.271296296,-0.403703704,1,0,0,ansOne,,,,,,,,,,,,,,,,,5,2022-10-29_20h35.14.991,musicalMathTest,2022.2.4,59.97317999
music\active\vocals\Soda Pop (feat. Hot Air Balloon) (90) by Stony Pony.wav,soda pop,active,vocals,1,90,A,subtract,49,25,24,29,25,14,0,3,3,0,0,9,9,60,,,,,,,,,,,,,,,,,,,,,,,,,,,,,,,406.7494499,406.7494499,406.7494499,406.7494499,406.7494499,0.0049463,406.7494499,TRUE,-0.298148148,-0.411111111,1,0,0,ansOne,,,,,,,,,,,,,,,,,5,2022-10-29_20h35.14.991,musicalMathTest,2022.2.4,59.97317999
music\active\vocals\Soda Pop (feat. Hot Air Balloon) (90) by Stony Pony.wav,soda pop,active,vocals,1,90,A,multiply,5,12,60,68,67,70,0,3,3,0,0,10,10,110,,,,,,,,,,,,,,,,,,,,,,,,,,,,,,,415.6165909,415.6165909,415.6165909,415.6165909,415.6165909,0.0052281,415.6165909,TRUE,-0.287037037,-0.397222222,1,0,0,ansOne,,,,,,,,,,,,,,,,,5,2022-10-29_20h35.14.991,musicalMathTest,2022.2.4,59.97317999
music\active\instrumentals\Believe It (90) (Instrumental) by Ty Magenta.wav,believe it,active,instrumental,1,90,A,subtract,53,21,32,40,35,40,0,4,4,0,0,0,0,51,,,,,,,,,,,,,,,,,,,,,,,,434.4960749,0.004985,0.375925926,0.049074074,1,0,0,437.9461272,437.9461272,437.9461272,437.9461272,437.9461272,0.0174276,437.9461272,TRUE,0.111111111,-0.409259259,1,0,0,ansThree,429.495966,434.4960749,,,,,,,,,,,,,,,2,2022-10-29_19h58.00.993,musicalMathTest,2022.2.4,60.00747693
music\active\instrumentals\Believe It (90) (Instrumental) by Ty Magenta.wav,believe it,active,instrumental,1,90,A,multiply,6,10,60,68,63,67,0,4,4,0,0,1,1,91,,,,,,,,,,,,,,,,,,,,,,,,,,,,,,,445.9963086,445.9963086,445.9963086,445.9963086,445.9963086,0.0064695,445.9963086,TRUE,0.092592593,-0.394444444,1,0,0,ansThree,,,,,,,,,,,,,,,,,2,2022-10-29_19h58.00.993,musicalMathTest,2022.2.4,60.00747693
music\active\instrumentals\Believe It (90) (Instrumental) by Ty Magenta.wav,believe it,active,instrumental,1,90,A,multiply,14,10,140,146,141,143,0,4,4,0,0,2,2,74,,,,,,,,,,,,,,,,,,,,,,,,,,,,,,,449.8130709,449.8130709,449.8130709,449.8130709,449.8130709,0.0062308,449.8130709,TRUE,0.113888889,-0.409259259,1,0,0,ansThree,,,,,,,,,,,,,,,,,2,2022-10-29_19h58.00.993,musicalMathTest,2022.2.4,60.00747693
music\active\instrumentals\Believe It (90) (Instrumental) by Ty Magenta.wav,believe it,active,instrumental,1,90,A,add,58,13,71,79,76,80,0,4,4,0,0,3,3,23,,,,,,,,,,,,,,,,,,,,,,,,,,,,,,,451.796432,451.796432,451.796432,451.796432,451.796432,0.0064972,451.796432,TRUE,-0.296296296,-0.40462963,1,0,0,ansOne,,,,,,,,,,,,,,,,,2,2022-10-29_19h58.00.993,musicalMathTest,2022.2.4,60.00747693
music\active\instrumentals\Believe It (90) (Instrumental) by Ty Magenta.wav,believe it,active,instrumental,1,90,A,multiply,6,10,60,61,62,66,0,4,4,0,0,4,4,67,,,,,,,,,,,,,,,,,,,,,,,,,,,,,,,457.9465504,457.9465504,457.9465504,457.9465504,457.9465504,0.0062376,457.9465504,TRUE,-0.292592593,-0.387962963,1,0,0,ansOne,,,,,,,,,,,,,,,,,2,2022-10-29_19h58.00.993,musicalMathTest,2022.2.4,60.00747693
music\active\instrumentals\Believe It (90) (Instrumental) by Ty Magenta.wav,believe it,active,instrumental,1,90,A,subtract,54,53,1,4,9,13,0,4,4,0,0,5,5,45,,,,,,,,,,,,,,,,,,,,,,,,,,,,,,,460.0465906,460.0465906,460.0465906,460.0465906,460.0465906,0.0063003,460.0465906,TRUE,0.100925926,-0.406481481,1,0,0,ansThree,,,,,,,,,,,,,,,,,2,2022-10-29_19h58.00.993,musicalMathTest,2022.2.4,60.00747693
music\active\instrumentals\Believe It (90) (Instrumental) by Ty Magenta.wav,believe it,active,instrumental,1,90,A,subtract,58,54,4,9,8,7,0,4,4,0,0,6,6,37,,,,,,,,,,,,,,,,,,,,,,,,,,,,,,,462.6633247,462.6633247,462.6633247,462.6633247,462.6633247,0.0059582,462.6633247,TRUE,-0.300925926,-0.400925926,1,0,0,ansOne,,,,,,,,,,,,,,,,,2,2022-10-29_19h58.00.993,musicalMathTest,2022.2.4,60.00747693
music\active\instrumentals\Believe It (90) (Instrumental) by Ty Magenta.wav,believe it,active,instrumental,1,90,A,subtract,58,11,47,50,49,37,0,4,4,0,0,7,7,60,,,,,,,,,,,,,,,,,,,,,,,,,,,,,,,466.6634075,466.6634075,466.6634075,466.6634075,466.6634075,0.0062434,466.6634075,TRUE,-0.105555556,-0.397222222,1,0,0,ansTwo,,,,,,,,,,,,,,,,,2,2022-10-29_19h58.00.993,musicalMathTest,2022.2.4,60.00747693
music\active\instrumentals\Believe It (90) (Instrumental) by Ty Magenta.wav,believe it,active,instrumental,1,90,A,subtract,54,26,28,18,33,37,0,4,4,0,0,8,8,53,,,,,,,,,,,,,,,,,,,,,,,,,,,,,,,473.6302408,473.6302408,473.6302408,473.6302408,473.6302408,0.0060367,473.6302408,FALSE,-0.292592593,-0.394444444,1,0,0,ansOne,,,,,,,,,,,,,,,,,2,2022-10-29_19h58.00.993,musicalMathTest,2022.2.4,60.00747693
music\active\instrumentals\Believe It (90) (Instrumental) by Ty Magenta.wav,believe it,active,instrumental,1,90,A,add,54,26,80,81,83,87,0,4,4,0,0,9,9,22,,,,,,,,,,,,,,,,,,,,,,,,,,,,,,,480.0470227,480.0470227,480.0470227,480.0470227,480.0470227,0.0062685,480.0470227,TRUE,0.099074074,-0.405555556,1,0,0,ansThree,,,,,,,,,,,,,,,,,2,2022-10-29_19h58.00.993,musicalMathTest,2022.2.4,60.00747693
music\active\instrumentals\Believe It (90) (Instrumental) by Ty Magenta.wav,believe it,active,instrumental,1,90,A,multiply,10,14,140,147,144,150,0,4,4,0,0,10,10,62,,,,,,,,,,,,,,,,,,,,,,,,,,,,,,,485.3304663,485.3304663,485.3304663,485.3304663,485.3304663,0.0064151,485.3304663,TRUE,-0.089814815,-0.391666667,1,0,0,ansTwo,,,,,,,,,,,,,,,,,2,2022-10-29_19h58.00.993,musicalMathTest,2022.2.4,60.00747693
music\active\instrumentals\Believe It (90) (Instrumental) by Ty Magenta.wav,believe it,active,instrumental,1,90,A,multiply,5,6,30,36,38,42,0,4,4,0,0,11,11,71,,,,,,,,,,,,,,,,,,,,,,,,,,,,,,,487.3138091,487.3138091,487.3138091,487.3138091,487.3138091,0.0063969,487.3138091,TRUE,0.107407407,-0.410185185,1,0,0,ansThree,,,,,,,,,,,,,,,,,2,2022-10-29_19h58.00.993,musicalMathTest,2022.2.4,60.00747693
music\active\instrumentals\Believe It (90) (Instrumental) by Ty Magenta.wav,believe it,active,instrumental,1,90,A,subtract,54,13,41,49,42,45,0,4,4,0,0,12,12,50,,,,,,,,,,,,,,,,,,,,,,,,,,,,,,,491.6472649,491.6472649,491.6472649,491.6472649,491.6472649,0.0061273,491.6472649,TRUE,-0.090740741,-0.397222222,1,0,0,ansTwo,,,,,,,,,,,,,,,,,2,2022-10-29_19h58.00.993,musicalMathTest,2022.2.4,60.00747693
music\active\instrumentals\Believe It (90) (Instrumental) by Ty Magenta.wav,believe it,active,instrumental,1,90,A,subtract,53,26,27,31,29,34,0,4,4,0,0,13,13,61,,,,,,,,,,,,,,,,,,,,,,,,,,,,,,,496.5473691,496.5473691,496.5473691,496.5473691,496.5473691,0.0067078,496.5473691,TRUE,-0.115740741,-0.398148148,1,0,0,ansTwo,,,,,,,,,,,,,,,,,2,2022-10-29_19h58.00.993,musicalMathTest,2022.2.4,60.00747693
music\active\instrumentals\Believe It (90) (Instrumental) by Ty Magenta.wav,believe it,active,instrumental,1,90,A,multiply,10,19,190,192,194,195,0,4,4,0,0,14,14,64,,,,,,,,,,,,,,,,,,,,,,,,,,,,,,,507.2809413,507.2809413,507.2809413,507.2809413,507.2809413,0.0062606,507.2809413,TRUE,0.111111111,-0.396296296,1,0,0,ansThree,,,,,,,,,,,,,,,,,2,2022-10-29_19h58.00.993,musicalMathTest,2022.2.4,60.00747693
music\active\instrumentals\Believe It (90) (Instrumental) by Ty Magenta.wav,believe it,active,instrumental,1,90,A,add,56,53,109,116,112,116,0,4,4,0,0,15,15,11,,,,,,,,,,,,,,,,,,,,,,,,,,,,,,,509.3976393,509.3976393,509.3976393,509.3976393,509.3976393,0.0064608,509.3976393,TRUE,-0.106481481,-0.399074074,1,0,0,ansTwo,,,,,,,,,,,,,,,,,2,2022-10-29_19h58.00.993,musicalMathTest,2022.2.4,60.00747693
music\active\instrumentals\Believe It (90) (Instrumental) by Ty Magenta.wav,believe it,active,instrumental,1,90,A,add,44,11,55,57,61,56,0,4,4,0,0,16,16,21,,,,,,,,,,,,,,,,,,,,,,,,,,,,,,,513.3810723,513.3810723,513.3810723,513.3810723,513.3810723,0.0062377,513.3810723,TRUE,-0.29537037,-0.399074074,1,0,0,ansOne,,,,,,,,,,,,,,,,,2,2022-10-29_19h58.00.993,musicalMathTest,2022.2.4,60.00747693
music\active\instrumentals\Believe It (90) (Instrumental) by Ty Magenta.wav,believe it,active,instrumental,1,90,A,multiply,19,5,95,101,100,97,0,4,4,0,0,17,17,100,,,,,,,,,,,,,,,,,,,,,,,,,,,,,,,518.4644808,518.4644808,518.4644808,518.4644808,518.4644808,0.0063522,518.4644808,TRUE,0.099074074,-0.402777778,1,0,0,ansThree,,,,,,,,,,,,,,,,,2,2022-10-29_19h58.00.993,musicalMathTest,2022.2.4,60.00747693
music\active\vocals\Like This (90) by MUNNYCAT.wav,like this,active,vocals,3,90,A,multiply,21,10,210,220,218,216,0,3,3,2,0,0,0,77,,,,,,,,,,,,,,,,,,,,,,,,317.9883697,0.0050209,0.483333333,0.160185185,1,0,0,320.5050966,320.5050966,320.5050966,320.5050966,320.5050966,0.0201408,320.5050966,TRUE,0.091666667,-0.402777778,1,0,0,ansThree,312.9882213,317.9883697,,,,,,,,,,,,,,,4,2022-10-29_20h17.33.188,musicalMathTest,2022.2.4,60.00963755
music\active\vocals\Like This (90) by MUNNYCAT.wav,like this,active,vocals,3,90,A,subtract,26,25,1,7,9,7,0,3,3,2,0,1,1,48,,,,,,,,,,,,,,,,,,,,,,,,,,,,,,,328.5552384,328.5552384,328.5552384,328.5552384,328.5552384,0.0060109,328.5552384,TRUE,-0.29537037,-0.394444444,1,0,0,ansOne,,,,,,,,,,,,,,,,,4,2022-10-29_20h17.33.188,musicalMathTest,2022.2.4,60.00963755
music\active\vocals\Like This (90) by MUNNYCAT.wav,like this,active,vocals,3,90,A,add,28,28,56,62,61,63,0,3,3,2,0,2,2,30,,,,,,,,,,,,,,,,,,,,,,,,,,,,,,,334.9220064,334.9220064,334.9220064,334.9220064,334.9220064,0.0064661,334.9220064,TRUE,0.100925926,-0.403703704,1,0,0,ansThree,,,,,,,,,,,,,,,,,4,2022-10-29_20h17.33.188,musicalMathTest,2022.2.4,60.00963755
music\active\vocals\Like This (90) by MUNNYCAT.wav,like this,active,vocals,3,90,A,add,46,43,89,92,91,99,0,3,3,2,0,3,3,2,,,,,,,,,,,,,,,,,,,,,,,,,,,,,,,348.9223029,348.9223029,348.9223029,348.9223029,348.9223029,0.0061562,348.9223029,TRUE,-0.10462963,-0.406481481,1,0,0,ansTwo,,,,,,,,,,,,,,,,,4,2022-10-29_20h17.33.188,musicalMathTest,2022.2.4,60.00963755
music\active\vocals\Like This (90) by MUNNYCAT.wav,like this,active,vocals,3,90,A,add,53,49,102,109,107,112,0,3,3,2,0,4,4,13,,,,,,,,,,,,,,,,,,,,,,,,,,,,,,,355.2391415,355.2391415,355.2391415,355.2391415,355.2391415,0.0064369,355.2391415,TRUE,-0.085185185,-0.4,1,0,0,ansTwo,,,,,,,,,,,,,,,,,4,2022-10-29_20h17.33.188,musicalMathTest,2022.2.4,60.00963755
music\active\vocals\Like This (90) by MUNNYCAT.wav,like this,active,vocals,3,90,A,add,49,22,71,76,81,76,0,3,3,2,0,5,5,16,,,,,,,,,,,,,,,,,,,,,,,,,,,,,,,366.4727046,366.4727046,366.4727046,366.4727046,366.4727046,0.0062647,366.4727046,TRUE,-0.311111111,-0.397222222,1,0,0,ansOne,,,,,,,,,,,,,,,,,4,2022-10-29_20h17.33.188,musicalMathTest,2022.2.4,60.00963755
music\active\vocals\Like This (90) by MUNNYCAT.wav,like this,active,vocals,3,90,A,multiply,10,21,210,215,213,217,0,3,3,2,0,6,6,105,,,,,,,,,,,,,,,,,,,,,,,,,,,,,,,371.4561401,371.4561401,371.4561401,371.4561401,371.4561401,0.0065549,371.4561401,TRUE,0.096296296,-0.409259259,1,0,0,ansThree,,,,,,,,,,,,,,,,,4,2022-10-29_20h17.33.188,musicalMathTest,2022.2.4,60.00963755
music\active\vocals\Like This (90) by MUNNYCAT.wav,like this,active,vocals,3,90,A,subtract,28,14,14,20,22,26,0,3,3,2,0,7,7,45,,,,,,,,,,,,,,,,,,,,,,,,,,,,,,,374.2228724,374.2228724,374.2228724,374.2228724,374.2228724,0.006287,374.2228724,TRUE,0.103703704,-0.407407407,1,0,0,ansThree,,,,,,,,,,,,,,,,,4,2022-10-29_20h17.33.188,musicalMathTest,2022.2.4,60.00963755
music\active\vocals\Like This (90) by MUNNYCAT.wav,like this,active,vocals,3,90,A,add,48,43,91,93,92,96,0,3,3,2,0,8,8,8,,,,,,,,,,,,,,,,,,,,,,,,,,,,,,,376.7062548,376.7062548,376.7062548,376.7062548,376.7062548,0.0064481,376.7062548,TRUE,-0.3,-0.397222222,1,0,0,ansOne,,,,,,,,,,,,,,,,,4,2022-10-29_20h17.33.188,musicalMathTest,2022.2.4,60.00963755
music\active\vocals\Like This (90) by MUNNYCAT.wav,like this,active,vocals,3,90,A,subtract,50,25,25,31,32,29,0,3,3,2,0,9,9,56,,,,,,,,,,,,,,,,,,,,,,,,,,,,,,,387.4731488,387.4731488,387.4731488,387.4731488,387.4731488,0.0060932,387.4731488,TRUE,-0.303703704,-0.392592593,1,0,0,ansOne,,,,,,,,,,,,,,,,,4,2022-10-29_20h17.33.188,musicalMathTest,2022.2.4,60.00963755
music\active\vocals\Like This (90) by MUNNYCAT.wav,like this,active,vocals,3,90,A,add,48,48,96,101,103,99,0,3,3,2,0,10,10,27,,,,,,,,,,,,,,,,,,,,,,,,,,,,,,,394.1899387,394.1899387,394.1899387,394.1899387,394.1899387,0.006553,394.1899387,TRUE,-0.105555556,-0.397222222,1,0,0,ansTwo,,,,,,,,,,,,,,,,,4,2022-10-29_20h17.33.188,musicalMathTest,2022.2.4,60.00963755
music\active\vocals\Like This (90) by MUNNYCAT.wav,like this,active,vocals,3,90,A,multiply,12,5,60,70,64,63,0,3,3,2,0,11,11,98,,,,,,,,,,,,,,,,,,,,,,,,,,,,,,,398.5067107,398.5067107,398.5067107,398.5067107,398.5067107,0.00625,398.5067107,TRUE,-0.103703704,-0.402777778,1,0,0,ansTwo,,,,,,,,,,,,,,,,,4,2022-10-29_20h17.33.188,musicalMathTest,2022.2.4,60.00963755
music\active\vocals\Like This (90) by MUNNYCAT.wav,like this,active,vocals,3,90,A,add,50,50,100,101,110,106,0,3,3,2,0,12,12,3,,,,,,,,,,,,,,,,,,,,,,,,,,,,,,,404.0901732,404.0901732,404.0901732,404.0901732,404.0901732,0.0067323,404.0901732,TRUE,0.098148148,-0.397222222,1,0,0,ansThree,,,,,,,,,,,,,,,,,4,2022-10-29_20h17.33.188,musicalMathTest,2022.2.4,60.00963755
music\active\vocals\Like This (90) by MUNNYCAT.wav,like this,active,vocals,3,90,A,add,43,25,68,70,71,73,0,3,3,2,0,13,13,21,,,,,,,,,,,,,,,,,,,,,,,,,,,,,,,407.0235693,407.0235693,407.0235693,407.0235693,407.0235693,0.0060867,407.0235693,TRUE,-0.3,-0.410185185,1,0,0,ansOne,,,,,,,,,,,,,,,,,4,2022-10-29_20h17.33.188,musicalMathTest,2022.2.4,60.00963755
music\silence.wav,silent,silent,silent,1,90,A,multiply,8,2,16,21,20,22,0,0,0,4,0,0,0,114,,,,,,,,,,,,,,,,,,,,,,,,34.0878539,0.0379814,0.439814815,-0.030555556,1,0,0,35.8877306,35.8877306,35.8877306,35.8877306,35.8877306,0.0298272,35.8877306,TRUE,-0.09537037,-0.398148148,1,0,0,ansTwo,,,,,,,,,,,,,,,,,2,2022-10-29_19h58.00.993,musicalMathTest,2022.2.4,60.00747693
music\silence.wav,silent,silent,silent,1,90,A,multiply,10,5,50,53,52,56,0,0,0,4,0,1,1,96,,,,,,,,,,,,,,,,,,,,,,,,,,,,,,,39.1044509,39.1044509,39.1044509,39.1044509,39.1044509,0.0083367,39.1044509,TRUE,0.081481481,-0.394444444,1,0,0,ansThree,,,,,,,,,,,,,,,,,2,2022-10-29_19h58.00.993,musicalMathTest,2022.2.4,60.00747693
music\silence.wav,silent,silent,silent,1,90,A,add,45,17,62,70,66,64,0,0,0,4,0,2,2,29,,,,,,,,,,,,,,,,,,,,,,,,,,,,,,,41.3378189,41.3378189,41.3378189,41.3378189,41.3378189,0.00793,41.3378189,TRUE,-0.087962963,-0.403703704,1,0,0,ansTwo,,,,,,,,,,,,,,,,,2,2022-10-29_19h58.00.993,musicalMathTest,2022.2.4,60.00747693
music\silence.wav,silent,silent,silent,1,90,A,add,30,29,59,67,62,66,0,0,0,4,0,3,3,18,,,,,,,,,,,,,,,,,,,,,,,,,,,,,,,49.6879796,49.6879796,49.6879796,49.6879796,49.6879796,0.0073006,49.6879796,TRUE,-0.309259259,-0.399074074,1,0,0,ansOne,,,,,,,,,,,,,,,,,2,2022-10-29_19h58.00.993,musicalMathTest,2022.2.4,60.00747693
music\silence.wav,silent,silent,silent,1,90,A,multiply,10,9,90,91,97,95,0,0,0,4,0,4,4,103,,,,,,,,,,,,,,,,,,,,,,,,,,,,,,,54.7381083,54.7381083,54.7381083,54.7381083,54.7381083,0.0062922,54.7381083,TRUE,0.103703704,-0.4,1,0,0,ansThree,,,,,,,,,,,,,,,,,2,2022-10-29_19h58.00.993,musicalMathTest,2022.2.4,60.00747693
music\silence.wav,silent,silent,silent,1,90,A,add,52,29,81,84,87,82,0,0,0,4,0,5,5,30,,,,,,,,,,,,,,,,,,,,,,,,,,,,,,,57.3381943,57.3381943,57.3381943,57.3381943,57.3381943,0.0063074,57.3381943,TRUE,-0.100925926,-0.391666667,1,0,0,ansTwo,,,,,,,,,,,,,,,,,2,2022-10-29_19h58.00.993,musicalMathTest,2022.2.4,60.00747693
music\silence.wav,silent,silent,silent,1,90,A,subtract,38,35,3,10,6,10,0,0,0,4,0,6,6,43,,,,,,,,,,,,,,,,,,,,,,,,,,,,,,,66.6883498,66.6883498,66.6883498,66.6883498,66.6883498,0.0072801,66.6883498,TRUE,-0.10462963,-0.397222222,1,0,0,ansTwo,,,,,,,,,,,,,,,,,2,2022-10-29_19h58.00.993,musicalMathTest,2022.2.4,60.00747693
music\silence.wav,silent,silent,silent,1,90,A,subtract,35,18,17,18,7,23,0,0,0,4,0,7,7,59,,,,,,,,,,,,,,,,,,,,,,,,,,,,,,,71.5551286,71.5551286,71.5551286,71.5551286,71.5551286,0.0062933,71.5551286,TRUE,0.10462963,-0.397222222,1,0,0,ansThree,,,,,,,,,,,,,,,,,2,2022-10-29_19h58.00.993,musicalMathTest,2022.2.4,60.00747693
music\silence.wav,silent,silent,silent,1,90,A,multiply,8,10,80,88,82,85,0,0,0,4,0,8,8,66,,,,,,,,,,,,,,,,,,,,,,,,,,,,,,,83.9720611,83.9720611,83.9720611,83.9720611,83.9720611,0.0061299,83.9720611,TRUE,-0.293518519,-0.396296296,1,0,0,ansOne,,,,,,,,,,,,,,,,,2,2022-10-29_19h58.00.993,musicalMathTest,2022.2.4,60.00747693
music\silence.wav,silent,silent,silent,1,90,A,add,57,52,109,116,115,110,0,0,0,4,0,9,9,14,,,,,,,,,,,,,,,,,,,,,,,,,,,,,,,87.5721318,87.5721318,87.5721318,87.5721318,87.5721318,0.0066747,87.5721318,TRUE,-0.294444444,-0.40462963,1,0,0,ansOne,,,,,,,,,,,,,,,,,2,2022-10-29_19h58.00.993,musicalMathTest,2022.2.4,60.00747693
music\silence.wav,silent,silent,silent,1,90,A,multiply,9,10,90,91,93,96,0,0,0,4,0,10,10,75,,,,,,,,,,,,,,,,,,,,,,,,,,,,,,,92.1889028,92.1889028,92.1889028,92.1889028,92.1889028,0.006108,92.1889028,TRUE,-0.113888889,-0.4,1,0,0,ansTwo,,,,,,,,,,,,,,,,,2,2022-10-29_19h58.00.993,musicalMathTest,2022.2.4,60.00747693
music\silence.wav,silent,silent,silent,1,90,A,add,53,52,105,109,108,111,0,0,0,4,0,11,11,4,,,,,,,,,,,,,,,,,,,,,,,,,,,,,,,95.3056357,95.3056357,95.3056357,95.3056357,95.3056357,0.0067831,95.3056357,TRUE,-0.07962963,-0.396296296,1,0,0,ansTwo,,,,,,,,,,,,,,,,,2,2022-10-29_19h58.00.993,musicalMathTest,2022.2.4,60.00747693
music\silence.wav,silent,silent,silent,1,90,A,multiply,10,16,160,167,162,164,0,0,0,4,0,12,12,97,,,,,,,,,,,,,,,,,,,,,,,,,,,,,,,100.2890717,100.2890717,100.2890717,100.2890717,100.2890717,0.0062542,100.2890717,TRUE,-0.090740741,-0.390740741,1,0,0,ansTwo,,,,,,,,,,,,,,,,,2,2022-10-29_19h58.00.993,musicalMathTest,2022.2.4,60.00747693
music\silence.wav,silent,silent,silent,1,90,A,multiply,5,8,40,44,46,50,0,0,0,4,0,13,13,70,,,,,,,,,,,,,,,,,,,,,,,,,,,,,,,103.9891157,103.9891157,103.9891157,103.9891157,103.9891157,0.0063629,103.9891157,TRUE,0.091666667,-0.412037037,1,0,0,ansThree,,,,,,,,,,,,,,,,,2,2022-10-29_19h58.00.993,musicalMathTest,2022.2.4,60.00747693
music\silence.wav,silent,silent,silent,1,90,A,multiply,5,9,45,49,51,47,0,0,0,4,0,14,14,71,,,,,,,,,,,,,,,,,,,,,,,,,,,,,,,109.3892444,109.3892444,109.3892444,109.3892444,109.3892444,0.0061265,109.3892444,TRUE,-0.09537037,-0.396296296,1,0,0,ansTwo,,,,,,,,,,,,,,,,,2,2022-10-29_19h58.00.993,musicalMathTest,2022.2.4,60.00747693
music\silence.wav,silent,silent,silent,1,90,A,add,36,35,71,81,77,81,0,0,0,4,0,15,15,9,,,,,,,,,,,,,,,,,,,,,,,,,,,,,,,112.6060202,112.6060202,112.6060202,112.6060202,112.6060202,0.006432,112.6060202,TRUE,-0.106481481,-0.390740741,1,0,0,ansTwo,,,,,,,,,,,,,,,,,2,2022-10-29_19h58.00.993,musicalMathTest,2022.2.4,60.00747693
music\silence.wav,silent,silent,silent,1,90,A,subtract,30,29,1,5,7,5,0,0,0,4,0,16,16,49,,,,,,,,,,,,,,,,,,,,,,,,,,,,,,,123.7395733,123.7395733,123.7395733,123.7395733,123.7395733,0.0060163,123.7395733,TRUE,-0.1,-0.4,1,0,0,ansTwo,,,,,,,,,,,,,,,,,2,2022-10-29_19h58.00.993,musicalMathTest,2022.2.4,60.00747693
music\active\instrumentals\Someone Like You (90) (Instrumental) by Poison Beaches.wav,someone like you,active,instrumental,4,90,A,subtract,47,34,13,16,15,18,0,4,4,1,0,0,0,39,,,,,,,,,,,,,,,,,,,,,,,,423.4504181,0.0036936,0.018518519,-0.057407407,1,0,0,443.3185158,443.3185158,443.3185158,443.3185158,443.3185158,0.0161371,443.3185158,TRUE,0.112962963,-0.412037037,1,0,0,ansThree,418.4502728,423.4504181,,,,,,,,,,,,,,,5,2022-10-29_20h35.14.991,musicalMathTest,2022.2.4,59.97317999
music\active\instrumentals\Someone Like You (90) (Instrumental) by Poison Beaches.wav,someone like you,active,instrumental,4,90,A,multiply,13,10,130,133,134,137,0,4,4,1,0,1,1,109,,,,,,,,,,,,,,,,,,,,,,,,,,,,,,,458.4864373,458.4864373,458.4864373,458.4864373,458.4864373,0.0050337,458.4864373,TRUE,-0.094444444,-0.39537037,1,0,0,ansTwo,,,,,,,,,,,,,,,,,5,2022-10-29_20h35.14.991,musicalMathTest,2022.2.4,59.97317999
music\active\instrumentals\Someone Like You (90) (Instrumental) by Poison Beaches.wav,someone like you,active,instrumental,4,90,A,subtract,51,34,17,20,21,23,0,4,4,1,0,2,2,46,,,,,,,,,,,,,,,,,,,,,,,,,,,,,,,460.4364921,460.4364921,460.4364921,460.4364921,460.4364921,0.0052295,460.4364921,FALSE,0.302777778,-0.406481481,1,0,0,ansFour,,,,,,,,,,,,,,,,,5,2022-10-29_20h35.14.991,musicalMathTest,2022.2.4,59.97317999
music\active\instrumentals\Someone Like You (90) (Instrumental) by Poison Beaches.wav,someone like you,active,instrumental,4,90,A,add,51,47,98,102,105,108,0,4,4,1,0,3,3,20,,,,,,,,,,,,,,,,,,,,,,,,,,,,,,,471.8706928,471.8706928,471.8706928,471.8706928,471.8706928,0.0052709,471.8706928,TRUE,0.099074074,-0.40462963,1,0,0,ansThree,,,,,,,,,,,,,,,,,5,2022-10-29_20h35.14.991,musicalMathTest,2022.2.4,59.97317999
music\active\instrumentals\Someone Like You (90) (Instrumental) by Poison Beaches.wav,someone like you,active,instrumental,4,90,A,multiply,5,20,100,107,103,106,0,4,4,1,0,4,4,111,,,,,,,,,,,,,,,,,,,,,,,,,,,,,,,479.1544239,479.1544239,479.1544239,479.1544239,479.1544239,0.0052916,479.1544239,TRUE,0.108333333,-0.409259259,1,0,0,ansThree,,,,,,,,,,,,,,,,,5,2022-10-29_20h35.14.991,musicalMathTest,2022.2.4,59.97317999
music\active\instrumentals\Someone Like You (90) (Instrumental) by Poison Beaches.wav,someone like you,active,instrumental,4,90,A,multiply,10,10,100,107,103,104,0,4,4,1,0,5,5,74,,,,,,,,,,,,,,,,,,,,,,,,,,,,,,,488.4884845,488.4884845,488.4884845,488.4884845,488.4884845,0.0050643,488.4884845,TRUE,-0.276851852,-0.40462963,1,0,0,ansOne,,,,,,,,,,,,,,,,,5,2022-10-29_20h35.14.991,musicalMathTest,2022.2.4,59.97317999
music\active\instrumentals\Someone Like You (90) (Instrumental) by Poison Beaches.wav,someone like you,active,instrumental,4,90,A,add,63,59,122,125,132,126,0,4,4,1,0,6,6,6,,,,,,,,,,,,,,,,,,,,,,,,,,,,,,,490.705257,490.705257,490.705257,490.705257,490.705257,0.0051482,490.705257,TRUE,-0.303703704,-0.398148148,1,0,0,ansOne,,,,,,,,,,,,,,,,,5,2022-10-29_20h35.14.991,musicalMathTest,2022.2.4,59.97317999
music\active\instrumentals\Someone Like You (90) (Instrumental) by Poison Beaches.wav,someone like you,active,instrumental,4,90,A,add,52,51,103,104,107,108,0,4,4,1,0,7,7,23,,,,,,,,,,,,,,,,,,,,,,,,,,,,,,,504.222862,504.222862,504.222862,504.222862,504.222862,0.005125,504.222862,TRUE,-0.290740741,-0.40462963,1,0,0,ansOne,,,,,,,,,,,,,,,,,5,2022-10-29_20h35.14.991,musicalMathTest,2022.2.4,59.97317999
music\active\instrumentals\Someone Like You (90) (Instrumental) by Poison Beaches.wav,someone like you,active,instrumental,4,90,A,multiply,20,2,40,45,50,54,0,4,4,1,0,8,8,115,,,,,,,,,,,,,,,,,,,,,,,,,,,,,,,508.4898413,508.4898413,508.4898413,508.4898413,508.4898413,0.0051653,508.4898413,TRUE,-0.283333333,-0.393518519,1,0,0,ansOne,,,,,,,,,,,,,,,,,5,2022-10-29_20h35.14.991,musicalMathTest,2022.2.4,59.97317999
music\active\instrumentals\Someone Like You (90) (Instrumental) by Poison Beaches.wav,someone like you,active,instrumental,4,90,A,multiply,2,20,40,41,43,42,0,4,4,1,0,9,9,87,,,,,,,,,,,,,,,,,,,,,,,,,,,,,,,511.756755,511.756755,511.756755,511.756755,511.756755,0.005201,511.756755,TRUE,-0.112037037,-0.401851852,1,0,0,ansTwo,,,,,,,,,,,,,,,,,5,2022-10-29_20h35.14.991,musicalMathTest,2022.2.4,59.97317999
music\active\instrumentals\Someone Like You (90) (Instrumental) by Poison Beaches.wav,someone like you,active,instrumental,4,90,A,subtract,41,34,7,9,13,11,0,4,4,1,0,10,10,36,,,,,,,,,,,,,,,,,,,,,,,,,,,,,,,513.3901811,513.3901811,513.3901811,513.3901811,513.3901811,0.005472,513.3901811,TRUE,-0.3,-0.401851852,1,0,0,ansOne,,,,,,,,,,,,,,,,,5,2022-10-29_20h35.14.991,musicalMathTest,2022.2.4,59.97317999
music\calm\vocals\You & Me featuring Ural Thomas (90) by Bridge City Revival.wav,you and me,calm,vocals,4,90,A,multiply,10,9,90,91,97,95,0,0,0,2,0,0,0,103,,,,,,,,,,,,,,,,,,,,,,,,12.0886283,0.0280527,0.009259259,-0.266666667,1,0,0,12.7384224,12.7384224,12.7384224,12.7384224,12.7384224,0.0344553,12.7384224,TRUE,-0.114814815,-0.405555556,1,0,0,ansTwo,,,,,,,,,,,,,,,,,5,2022-10-29_20h35.14.991,musicalMathTest,2022.2.4,59.97317999
music\calm\vocals\You & Me featuring Ural Thomas (90) by Bridge City Revival.wav,you and me,calm,vocals,4,90,A,add,40,35,75,85,83,80,0,0,0,2,0,1,1,6,,,,,,,,,,,,,,,,,,,,,,,,,,,,,,,13.9717999,13.9717999,13.9717999,13.9717999,13.9717999,0.007904,13.9717999,TRUE,-0.096296296,-0.405555556,1,0,0,ansTwo,,,,,,,,,,,,,,,,,5,2022-10-29_20h35.14.991,musicalMathTest,2022.2.4,59.97317999
music\calm\vocals\You & Me featuring Ural Thomas (90) by Bridge City Revival.wav,you and me,calm,vocals,4,90,A,add,53,52,105,109,108,111,0,0,0,2,0,2,2,4,,,,,,,,,,,,,,,,,,,,,,,,,,,,,,,20.155816,20.155816,20.155816,20.155816,20.155816,0.0072902,20.155816,TRUE,-0.316666667,-0.398148148,1,0,0,ansOne,,,,,,,,,,,,,,,,,5,2022-10-29_20h35.14.991,musicalMathTest,2022.2.4,59.97317999
music\calm\vocals\You & Me featuring Ural Thomas (90) by Bridge City Revival.wav,you and me,calm,vocals,4,90,A,add,24,20,44,47,49,54,0,0,0,2,0,3,3,15,,,,,,,,,,,,,,,,,,,,,,,,,,,,,,,24.3060844,24.3060844,24.3060844,24.3060844,24.3060844,0.0050526,24.3060844,TRUE,-0.286111111,-0.402777778,1,0,0,ansOne,,,,,,,,,,,,,,,,,5,2022-10-29_20h35.14.991,musicalMathTest,2022.2.4,59.97317999
music\calm\vocals\You & Me featuring Ural Thomas (90) by Bridge City Revival.wav,you and me,calm,vocals,4,90,A,add,57,52,109,116,115,110,0,0,0,2,0,4,4,14,,,,,,,,,,,,,,,,,,,,,,,,,,,,,,,27.3063396,27.3063396,27.3063396,27.3063396,27.3063396,0.0063882,27.3063396,TRUE,0.098148148,-0.403703704,1,0,0,ansThree,,,,,,,,,,,,,,,,,5,2022-10-29_20h35.14.991,musicalMathTest,2022.2.4,59.97317999
music\calm\vocals\You & Me featuring Ural Thomas (90) by Bridge City Revival.wav,you and me,calm,vocals,4,90,A,subtract,45,45,0,2,3,7,0,0,0,2,0,5,5,41,,,,,,,,,,,,,,,,,,,,,,,,,,,,,,,33.0900473,33.0900473,33.0900473,33.0900473,33.0900473,0.0059802,33.0900473,TRUE,-0.309259259,-0.411111111,1,0,0,ansOne,,,,,,,,,,,,,,,,,5,2022-10-29_20h35.14.991,musicalMathTest,2022.2.4,59.97317999
music\calm\vocals\You & Me featuring Ural Thomas (90) by Bridge City Revival.wav,you and me,calm,vocals,4,90,A,subtract,48,45,3,7,6,10,0,0,0,2,0,6,6,38,,,,,,,,,,,,,,,,,,,,,,,,,,,,,,,35.6568616,35.6568616,35.6568616,35.6568616,35.6568616,0.0052978,35.6568616,TRUE,-0.098148148,-0.396296296,1,0,0,ansTwo,,,,,,,,,,,,,,,,,5,2022-10-29_20h35.14.991,musicalMathTest,2022.2.4,59.97317999
music\calm\vocals\You & Me featuring Ural Thomas (90) by Bridge City Revival.wav,you and me,calm,vocals,4,90,A,subtract,35,24,11,17,19,1,0,0,0,2,0,7,7,50,,,,,,,,,,,,,,,,,,,,,,,,,,,,,,,41.7406551,41.7406551,41.7406551,41.7406551,41.7406551,0.0049964,41.7406551,TRUE,-0.088888889,-0.4,1,0,0,ansTwo,,,,,,,,,,,,,,,,,5,2022-10-29_20h35.14.991,musicalMathTest,2022.2.4,59.97317999
music\calm\vocals\You & Me featuring Ural Thomas (90) by Bridge City Revival.wav,you and me,calm,vocals,4,90,A,multiply,16,5,80,82,86,90,0,0,0,2,0,8,8,101,,,,,,,,,,,,,,,,,,,,,,,,,,,,,,,46.3576704,46.3576704,46.3576704,46.3576704,46.3576704,0.005294,46.3576704,TRUE,0.111111111,-0.40462963,1,0,0,ansThree,,,,,,,,,,,,,,,,,5,2022-10-29_20h35.14.991,musicalMathTest,2022.2.4,59.97317999
music\calm\vocals\You & Me featuring Ural Thomas (90) by Bridge City Revival.wav,you and me,calm,vocals,4,90,A,multiply,8,10,80,85,90,94,0,0,0,2,0,9,9,74,,,,,,,,,,,,,,,,,,,,,,,,,,,,,,,66.0590761,66.0590761,66.0590761,66.0590761,66.0590761,0.0053429,66.0590761,TRUE,-0.097222222,-0.397222222,1,0,0,ansTwo,,,,,,,,,,,,,,,,,5,2022-10-29_20h35.14.991,musicalMathTest,2022.2.4,59.97317999
music\calm\vocals\You & Me featuring Ural Thomas (90) by Bridge City Revival.wav,you and me,calm,vocals,4,90,A,multiply,8,2,16,21,20,22,0,0,0,2,0,10,10,114,,,,,,,,,,,,,,,,,,,,,,,,,,,,,,,67.5758027,67.5758027,67.5758027,67.5758027,67.5758027,0.0060297,67.5758027,TRUE,-0.305555556,-0.402777778,1,0,0,ansOne,,,,,,,,,,,,,,,,,5,2022-10-29_20h35.14.991,musicalMathTest,2022.2.4,59.97317999
music\calm\vocals\You & Me featuring Ural Thomas (90) by Bridge City Revival.wav,you and me,calm,vocals,4,90,A,multiply,9,10,90,96,98,92,0,0,0,2,0,11,11,91,,,,,,,,,,,,,,,,,,,,,,,,,,,,,,,69.3092372,69.3092372,69.3092372,69.3092372,69.3092372,0.0053363,69.3092372,TRUE,0.103703704,-0.400925926,1,0,0,ansThree,,,,,,,,,,,,,,,,,5,2022-10-29_20h35.14.991,musicalMathTest,2022.2.4,59.97317999
music\calm\vocals\You & Me featuring Ural Thomas (90) by Bridge City Revival.wav,you and me,calm,vocals,4,90,A,multiply,16,10,160,170,164,170,0,0,0,2,0,12,12,77,,,,,,,,,,,,,,,,,,,,,,,,,,,,,,,74.992991,74.992991,74.992991,74.992991,74.992991,0.0052352,74.992991,TRUE,0.092592593,-0.401851852,1,0,0,ansThree,,,,,,,,,,,,,,,,,5,2022-10-29_20h35.14.991,musicalMathTest,2022.2.4,59.97317999
music\calm\vocals\You & Me featuring Ural Thomas (90) by Bridge City Revival.wav,you and me,calm,vocals,4,90,A,multiply,10,5,50,53,52,56,0,0,0,2,0,13,13,96,,,,,,,,,,,,,,,,,,,,,,,,,,,,,,,77.409836,77.409836,77.409836,77.409836,77.409836,0.0050114,77.409836,TRUE,-0.298148148,-0.398148148,1,0,0,ansOne,,,,,,,,,,,,,,,,,5,2022-10-29_20h35.14.991,musicalMathTest,2022.2.4,59.97317999
music\calm\vocals\You & Me featuring Ural Thomas (90) by Bridge City Revival.wav,you and me,calm,vocals,4,90,A,subtract,57,52,5,9,10,11,0,0,0,2,0,14,14,45,,,,,,,,,,,,,,,,,,,,,,,,,,,,,,,79.2099203,79.2099203,79.2099203,79.2099203,79.2099203,0.0051335,79.2099203,TRUE,-0.103703704,-0.408333333,1,0,0,ansTwo,,,,,,,,,,,,,,,,,5,2022-10-29_20h35.14.991,musicalMathTest,2022.2.4,59.97317999
music\calm\vocals\You & Me featuring Ural Thomas (90) by Bridge City Revival.wav,you and me,calm,vocals,4,90,A,add,35,29,64,67,66,68,0,0,0,2,0,15,15,22,,,,,,,,,,,,,,,,,,,,,,,,,,,,,,,85.8603104,85.8603104,85.8603104,85.8603104,85.8603104,0.0050133,85.8603104,TRUE,-0.098148148,-0.400925926,1,0,0,ansTwo,,,,,,,,,,,,,,,,,5,2022-10-29_20h35.14.991,musicalMathTest,2022.2.4,59.97317999
music\calm\vocals\You & Me featuring Ural Thomas (90) by Bridge City Revival.wav,you and me,calm,vocals,4,90,A,add,20,20,40,45,41,45,0,0,0,2,0,16,16,8,,,,,,,,,,,,,,,,,,,,,,,,,,,,,,,100.5446827,100.5446827,100.5446827,100.5446827,100.5446827,0.0054432,100.5446827,TRUE,-0.297222222,-0.40462963,1,0,0,ansOne,,,,,,,,,,,,,,,,,5,2022-10-29_20h35.14.991,musicalMathTest,2022.2.4,59.97317999
music\calm\vocals\You & Me featuring Ural Thomas (90) by Bridge City Revival.wav,you and me,calm,vocals,4,90,A,multiply,9,5,45,49,46,48,0,0,0,2,0,17,17,99,,,,,,,,,,,,,,,,,,,,,,,,,,,,,,,101.8782463,101.8782463,101.8782463,101.8782463,101.8782463,0.0049417,101.8782463,TRUE,-0.293518519,-0.403703704,1,0,0,ansOne,,,,,,,,,,,,,,,,,5,2022-10-29_20h35.14.991,musicalMathTest,2022.2.4,59.97317999
music\calm\vocals\Brand New Feelings (90) by Land of Legs.wav,brand new feelings,calm,vocals,1,90,A,multiply,2,10,20,27,29,27,0,3,3,1,0,0,0,91,,,,,,,,,,,,,,,,,,,,,,,,333.4439759,0.0049001,0.47037037,0.055555556,1,0,0,335.6939964,335.6939964,335.6939964,335.6939964,335.6939964,0.019384,335.6939964,TRUE,0.089814815,-0.39537037,1,0,0,ansThree,328.4438443,333.4439759,,,,,,,,,,,,,,,2,2022-10-29_19h58.00.993,musicalMathTest,2022.2.4,60.00747693
music\calm\vocals\Brand New Feelings (90) by Land of Legs.wav,brand new feelings,calm,vocals,1,90,A,subtract,50,50,0,5,7,2,0,3,3,1,0,1,1,34,,,,,,,,,,,,,,,,,,,,,,,,,,,,,,,338.3940554,338.3940554,338.3940554,338.3940554,338.3940554,0.0060349,338.3940554,TRUE,0.098148148,-0.4,1,0,0,ansThree,,,,,,,,,,,,,,,,,2,2022-10-29_19h58.00.993,musicalMathTest,2022.2.4,60.00747693
music\calm\vocals\Brand New Feelings (90) by Land of Legs.wav,brand new feelings,calm,vocals,1,90,A,multiply,21,5,105,107,109,113,0,3,3,1,0,2,2,85,,,,,,,,,,,,,,,,,,,,,,,,,,,,,,,340.7940925,340.7940925,340.7940925,340.7940925,340.7940925,0.0064597,340.7940925,TRUE,-0.291666667,-0.401851852,1,0,0,ansOne,,,,,,,,,,,,,,,,,2,2022-10-29_19h58.00.993,musicalMathTest,2022.2.4,60.00747693
music\calm\vocals\Brand New Feelings (90) by Land of Legs.wav,brand new feelings,calm,vocals,1,90,A,multiply,10,18,180,186,185,187,0,3,3,1,0,3,3,104,,,,,,,,,,,,,,,,,,,,,,,,,,,,,,,356.6111043,356.6111043,356.6111043,356.6111043,356.6111043,0.0063539,356.6111043,TRUE,0.117592593,-0.407407407,1,0,0,ansThree,,,,,,,,,,,,,,,,,2,2022-10-29_19h58.00.993,musicalMathTest,2022.2.4,60.00747693
music\calm\vocals\Brand New Feelings (90) by Land of Legs.wav,brand new feelings,calm,vocals,1,90,A,subtract,51,49,2,5,9,3,0,3,3,1,0,4,4,41,,,,,,,,,,,,,,,,,,,,,,,,,,,,,,,366.1279685,366.1279685,366.1279685,366.1279685,366.1279685,0.0062881,366.1279685,TRUE,-0.101851852,-0.393518519,1,0,0,ansTwo,,,,,,,,,,,,,,,,,2,2022-10-29_19h58.00.993,musicalMathTest,2022.2.4,60.00747693
music\calm\vocals\Brand New Feelings (90) by Land of Legs.wav,brand new feelings,calm,vocals,1,90,A,subtract,48,43,5,7,10,14,0,3,3,1,0,5,5,46,,,,,,,,,,,,,,,,,,,,,,,,,,,,,,,372.161429,372.161429,372.161429,372.161429,372.161429,0.0062417,372.161429,TRUE,0.097222222,-0.400925926,1,0,0,ansThree,,,,,,,,,,,,,,,,,2,2022-10-29_19h58.00.993,musicalMathTest,2022.2.4,60.00747693
music\calm\vocals\Brand New Feelings (90) by Land of Legs.wav,brand new feelings,calm,vocals,1,90,A,multiply,18,5,90,93,100,98,0,3,3,1,0,6,6,100,,,,,,,,,,,,,,,,,,,,,,,,,,,,,,,377.9948848,377.9948848,377.9948848,377.9948848,377.9948848,0.006384,377.9948848,TRUE,-0.097222222,-0.405555556,1,0,0,ansTwo,,,,,,,,,,,,,,,,,2,2022-10-29_19h58.00.993,musicalMathTest,2022.2.4,60.00747693
music\calm\vocals\Brand New Feelings (90) by Land of Legs.wav,brand new feelings,calm,vocals,1,90,A,multiply,10,21,210,215,213,217,0,3,3,1,0,7,7,105,,,,,,,,,,,,,,,,,,,,,,,,,,,,,,,385.9116914,385.9116914,385.9116914,385.9116914,385.9116914,0.0065693,385.9116914,TRUE,-0.299074074,-0.401851852,1,0,0,ansOne,,,,,,,,,,,,,,,,,2,2022-10-29_19h58.00.993,musicalMathTest,2022.2.4,60.00747693
music\calm\vocals\Brand New Feelings (90) by Land of Legs.wav,brand new feelings,calm,vocals,1,90,A,multiply,21,10,210,214,217,216,0,3,3,1,0,8,8,93,,,,,,,,,,,,,,,,,,,,,,,,,,,,,,,388.5617376,388.5617376,388.5617376,388.5617376,388.5617376,0.0066376,388.5617376,TRUE,0.09537037,-0.411111111,1,0,0,ansThree,,,,,,,,,,,,,,,,,2,2022-10-29_19h58.00.993,musicalMathTest,2022.2.4,60.00747693
music\calm\vocals\Brand New Feelings (90) by Land of Legs.wav,brand new feelings,calm,vocals,1,90,A,subtract,50,28,22,29,31,30,0,3,3,1,0,9,9,53,,,,,,,,,,,,,,,,,,,,,,,,,,,,,,,390.5951525,390.5951525,390.5951525,390.5951525,390.5951525,0.006136,390.5951525,TRUE,0.092592593,-0.4,1,0,0,ansThree,,,,,,,,,,,,,,,,,2,2022-10-29_19h58.00.993,musicalMathTest,2022.2.4,60.00747693
music\calm\vocals\Brand New Feelings (90) by Land of Legs.wav,brand new feelings,calm,vocals,1,90,A,multiply,12,5,60,67,62,64,0,3,3,1,0,10,10,82,,,,,,,,,,,,,,,,,,,,,,,,,,,,,,,398.4286133,398.4286133,398.4286133,398.4286133,398.4286133,0.0063211,398.4286133,TRUE,-0.298148148,-0.400925926,1,0,0,ansOne,,,,,,,,,,,,,,,,,2,2022-10-29_19h58.00.993,musicalMathTest,2022.2.4,60.00747693
music\calm\vocals\Brand New Feelings (90) by Land of Legs.wav,brand new feelings,calm,vocals,1,90,A,multiply,5,2,10,15,20,16,0,3,3,1,0,11,11,111,,,,,,,,,,,,,,,,,,,,,,,,,,,,,,,403.7454395,403.7454395,403.7454395,403.7454395,403.7454395,0.0060579,403.7454395,FALSE,-0.110185185,-0.4,1,0,0,ansTwo,,,,,,,,,,,,,,,,,2,2022-10-29_19h58.00.993,musicalMathTest,2022.2.4,60.00747693
music\calm\vocals\Brand New Feelings (90) by Land of Legs.wav,brand new feelings,calm,vocals,1,90,A,multiply,10,18,180,188,190,194,0,3,3,1,0,12,12,96,,,,,,,,,,,,,,,,,,,,,,,,,,,,,,,405.6787808,405.6787808,405.6787808,405.6787808,405.6787808,0.006796,405.6787808,TRUE,0.087962963,-0.4,1,0,0,ansThree,,,,,,,,,,,,,,,,,2,2022-10-29_19h58.00.993,musicalMathTest,2022.2.4,60.00747693
music\calm\vocals\Brand New Feelings (90) by Land of Legs.wav,brand new feelings,calm,vocals,1,90,A,multiply,12,10,120,126,122,127,0,3,3,1,0,13,13,74,,,,,,,,,,,,,,,,,,,,,,,,,,,,,,,409.6288788,409.6288788,409.6288788,409.6288788,409.6288788,0.0062608,409.6288788,TRUE,-0.10462963,-0.406481481,1,0,0,ansTwo,,,,,,,,,,,,,,,,,2,2022-10-29_19h58.00.993,musicalMathTest,2022.2.4,60.00747693
music\calm\vocals\Brand New Feelings (90) by Land of Legs.wav,brand new feelings,calm,vocals,1,90,A,multiply,18,10,180,182,188,183,0,3,3,1,0,14,14,92,,,,,,,,,,,,,,,,,,,,,,,,,,,,,,,414.1623188,414.1623188,414.1623188,414.1623188,414.1623188,0.0719675,414.1623188,TRUE,-0.093518519,-0.389814815,1,0,0,ansTwo,,,,,,,,,,,,,,,,,2,2022-10-29_19h58.00.993,musicalMathTest,2022.2.4,60.00747693
music\calm\vocals\Brand New Feelings (90) by Land of Legs.wav,brand new feelings,calm,vocals,1,90,A,multiply,21,10,210,217,214,216,0,3,3,1,0,15,15,109,,,,,,,,,,,,,,,,,,,,,,,,,,,,,,,416.67905,416.67905,416.67905,416.67905,416.67905,0.0062813,416.67905,TRUE,-0.098148148,-0.399074074,1,0,0,ansTwo,,,,,,,,,,,,,,,,,2,2022-10-29_19h58.00.993,musicalMathTest,2022.2.4,60.00747693
music\calm\vocals\Brand New Feelings (90) by Land of Legs.wav,brand new feelings,calm,vocals,1,90,A,multiply,12,10,120,124,123,128,0,3,3,1,0,16,16,66,,,,,,,,,,,,,,,,,,,,,,,,,,,,,,,419.8290931,419.8290931,419.8290931,419.8290931,419.8290931,0.0065441,419.8290931,TRUE,-0.306481481,-0.397222222,1,0,0,ansOne,,,,,,,,,,,,,,,,,2,2022-10-29_19h58.00.993,musicalMathTest,2022.2.4,60.00747693
music\calm\vocals\Brand New Feelings (90) by Land of Legs.wav,brand new feelings,calm,vocals,1,90,A,add,50,28,78,86,85,88,0,3,3,1,0,17,17,22,,,,,,,,,,,,,,,,,,,,,,,,,,,,,,,422.9458283,422.9458283,422.9458283,422.9458283,422.9458283,0.0062203,422.9458283,TRUE,0.106481481,-0.400925926,1,0,0,ansThree,,,,,,,,,,,,,,,,,2,2022-10-29_19h58.00.993,musicalMathTest,2022.2.4,60.00747693
music\silence.wav,silent,silent,silent,2,90,A,add,37,15,52,59,56,60,0,3,3,4,0,0,0,11,,,,,,,,,,,,,,,,,,,,,,,,428.5589317,0.0039465,0.07962963,-0.22037037,1,0,0,429.5090112,429.5090112,429.5090112,429.5090112,429.5090112,0.0135978,429.5090112,TRUE,-0.301851852,-0.4,1,0,0,ansOne,423.558662,428.5589317,,,,,,,,,,,,,,,3,2022-10-29_20h13.44.058,musicalMathTest,2022.2.4,60.00024003
music\silence.wav,silent,silent,silent,2,90,A,subtract,25,23,2,9,5,8,0,3,3,4,0,1,1,51,,,,,,,,,,,,,,,,,,,,,,,,,,,,,,,456.2275694,456.2275694,456.2275694,456.2275694,456.2275694,0.0050796,456.2275694,TRUE,0.102777778,-0.410185185,1,0,0,ansThree,,,,,,,,,,,,,,,,,3,2022-10-29_20h13.44.058,musicalMathTest,2022.2.4,60.00024003
music\silence.wav,silent,silent,silent,2,90,A,multiply,2,15,30,31,33,35,0,3,3,4,0,2,2,87,,,,,,,,,,,,,,,,,,,,,,,,,,,,,,,458.9110893,458.9110893,458.9110893,458.9110893,458.9110893,0.0051908,458.9110893,TRUE,-0.099074074,-0.396296296,1,0,0,ansTwo,,,,,,,,,,,,,,,,,3,2022-10-29_20h13.44.058,musicalMathTest,2022.2.4,60.00024003
music\silence.wav,silent,silent,silent,2,90,A,add,55,55,110,117,115,119,0,3,3,4,0,3,3,17,,,,,,,,,,,,,,,,,,,,,,,,,,,,,,,460.5278483,460.5278483,460.5278483,460.5278483,460.5278483,0.0050837,460.5278483,TRUE,-0.315740741,-0.396296296,1,0,0,ansOne,,,,,,,,,,,,,,,,,3,2022-10-29_20h13.44.058,musicalMathTest,2022.2.4,60.00024003
music\silence.wav,silent,silent,silent,2,90,A,multiply,3,10,30,31,32,37,0,3,3,4,0,4,4,106,,,,,,,,,,,,,,,,,,,,,,,,,,,,,,,467.9784252,467.9784252,467.9784252,467.9784252,467.9784252,0.0052688,467.9784252,TRUE,-0.282407407,-0.398148148,1,0,0,ansOne,,,,,,,,,,,,,,,,,3,2022-10-29_20h13.44.058,musicalMathTest,2022.2.4,60.00024003
music\silence.wav,silent,silent,silent,2,90,A,multiply,17,10,170,175,171,174,0,3,3,4,0,5,5,77,,,,,,,,,,,,,,,,,,,,,,,,,,,,,,,469.9618468,469.9618468,469.9618468,469.9618468,469.9618468,0.0052893,469.9618468,TRUE,-0.091666667,-0.392592593,1,0,0,ansTwo,,,,,,,,,,,,,,,,,3,2022-10-29_20h13.44.058,musicalMathTest,2022.2.4,60.00024003
music\silence.wav,silent,silent,silent,2,90,A,multiply,15,10,150,153,155,159,0,3,3,4,0,6,6,67,,,,,,,,,,,,,,,,,,,,,,,,,,,,,,,471.7453183,471.7453183,471.7453183,471.7453183,471.7453183,0.0056523,471.7453183,TRUE,0.085185185,-0.389814815,1,0,0,ansThree,,,,,,,,,,,,,,,,,3,2022-10-29_20h13.44.058,musicalMathTest,2022.2.4,60.00024003
music\silence.wav,silent,silent,silent,2,90,A,subtract,19,19,0,2,1,8,0,3,3,4,0,7,7,41,,,,,,,,,,,,,,,,,,,,,,,,,,,,,,,474.3289069,474.3289069,474.3289069,474.3289069,474.3289069,0.0050796,474.3289069,TRUE,0.098148148,-0.412037037,1,0,0,ansThree,,,,,,,,,,,,,,,,,3,2022-10-29_20h13.44.058,musicalMathTest,2022.2.4,60.00024003
music\silence.wav,silent,silent,silent,2,90,A,multiply,17,5,85,86,89,93,0,3,3,4,0,8,8,85,,,,,,,,,,,,,,,,,,,,,,,,,,,,,,,475.7789812,475.7789812,475.7789812,475.7789812,475.7789812,0.0053226,475.7789812,TRUE,0.09537037,-0.396296296,1,0,0,ansThree,,,,,,,,,,,,,,,,,3,2022-10-29_20h13.44.058,musicalMathTest,2022.2.4,60.00024003
music\silence.wav,silent,silent,silent,2,90,A,subtract,55,15,40,46,44,48,0,3,3,4,0,9,9,32,,,,,,,,,,,,,,,,,,,,,,,,,,,,,,,487.5964176,487.5964176,487.5964176,487.5964176,487.5964176,0.0051053,487.5964176,TRUE,0.108333333,-0.396296296,1,0,0,ansThree,,,,,,,,,,,,,,,,,3,2022-10-29_20h13.44.058,musicalMathTest,2022.2.4,60.00024003
music\silence.wav,silent,silent,silent,2,90,A,multiply,10,15,150,156,158,162,0,3,3,4,0,10,10,63,,,,,,,,,,,,,,,,,,,,,,,,,,,,,,,491.4467028,491.4467028,491.4467028,491.4467028,491.4467028,0.0052428,491.4467028,TRUE,0.105555556,-0.406481481,1,0,0,ansThree,,,,,,,,,,,,,,,,,3,2022-10-29_20h13.44.058,musicalMathTest,2022.2.4,60.00024003
music\silence.wav,silent,silent,silent,2,90,A,multiply,10,4,40,46,42,45,0,3,3,4,0,11,11,96,,,,,,,,,,,,,,,,,,,,,,,,,,,,,,,493.9468078,493.9468078,493.9468078,493.9468078,493.9468078,0.0052562,493.9468078,TRUE,0.111111111,-0.405555556,1,0,0,ansThree,,,,,,,,,,,,,,,,,3,2022-10-29_20h13.44.058,musicalMathTest,2022.2.4,60.00024003
music\silence.wav,silent,silent,silent,2,90,A,subtract,55,16,39,40,42,41,0,3,3,4,0,12,12,40,,,,,,,,,,,,,,,,,,,,,,,,,,,,,,,496.9804729,496.9804729,496.9804729,496.9804729,496.9804729,0.0052046,496.9804729,TRUE,0.094444444,-0.399074074,1,0,0,ansThree,,,,,,,,,,,,,,,,,3,2022-10-29_20h13.44.058,musicalMathTest,2022.2.4,60.00024003
music\silence.wav,silent,silent,silent,2,90,A,multiply,15,10,150,151,153,157,0,3,3,4,0,13,13,107,,,,,,,,,,,,,,,,,,,,,,,,,,,,,,,502.780862,502.780862,502.780862,502.780862,502.780862,0.0060811,502.780862,TRUE,0.087037037,-0.391666667,1,0,0,ansThree,,,,,,,,,,,,,,,,,3,2022-10-29_20h13.44.058,musicalMathTest,2022.2.4,60.00024003
music\silence.wav,silent,silent,silent,2,90,A,subtract,16,10,6,7,9,12,0,3,3,4,0,14,14,53,,,,,,,,,,,,,,,,,,,,,,,,,,,,,,,504.4643184,504.4643184,504.4643184,504.4643184,504.4643184,0.0052776,504.4643184,TRUE,-0.093518519,-0.397222222,1,0,0,ansTwo,,,,,,,,,,,,,,,,,3,2022-10-29_20h13.44.058,musicalMathTest,2022.2.4,60.00024003
music\silence.wav,silent,silent,silent,2,90,A,subtract,40,37,3,6,7,9,0,3,3,4,0,15,15,58,,,,,,,,,,,,,,,,,,,,,,,,,,,,,,,506.797844,506.797844,506.797844,506.797844,506.797844,0.0053819,506.797844,TRUE,-0.302777778,-0.402777778,1,0,0,ansOne,,,,,,,,,,,,,,,,,3,2022-10-29_20h13.44.058,musicalMathTest,2022.2.4,60.00024003
music\calm\instrumentals\Younger Then (90) (Instrumental) by Allebasi.wav,younger then,calm,instrumental,4,90,A,add,46,44,90,95,100,91,0,1,1,3,0,0,0,8,,,,,,,,,,,,,,,,,,,,,,,,110.7619604,0.0035272,0.051851852,-0.050925926,1,0,0,113.0288109,113.0288109,113.0288109,113.0288109,113.0288109,0.0162701,113.0288109,TRUE,-0.290740741,-0.403703704,1,0,0,ansOne,105.761782,110.7619604,,,,,,,,,,,,,,,5,2022-10-29_20h35.14.991,musicalMathTest,2022.2.4,59.97317999
music\calm\instrumentals\Younger Then (90) (Instrumental) by Allebasi.wav,younger then,calm,instrumental,4,90,A,multiply,6,10,60,67,62,66,0,1,1,3,0,1,1,107,,,,,,,,,,,,,,,,,,,,,,,,,,,,,,,122.4796233,122.4796233,122.4796233,122.4796233,122.4796233,0.004921,122.4796233,TRUE,0.114814815,-0.402777778,1,0,0,ansThree,,,,,,,,,,,,,,,,,5,2022-10-29_20h35.14.991,musicalMathTest,2022.2.4,59.97317999
music\calm\instrumentals\Younger Then (90) (Instrumental) by Allebasi.wav,younger then,calm,instrumental,4,90,A,multiply,5,19,95,102,96,100,0,1,1,3,0,2,2,72,,,,,,,,,,,,,,,,,,,,,,,,,,,,,,,124.1296994,124.1296994,124.1296994,124.1296994,124.1296994,0.0052056,124.1296994,TRUE,-0.309259259,-0.401851852,1,0,0,ansOne,,,,,,,,,,,,,,,,,5,2022-10-29_20h35.14.991,musicalMathTest,2022.2.4,59.97317999
music\calm\instrumentals\Younger Then (90) (Instrumental) by Allebasi.wav,younger then,calm,instrumental,4,90,A,add,54,13,67,69,70,74,0,1,1,3,0,3,3,19,,,,,,,,,,,,,,,,,,,,,,,,,,,,,,,144.8645316,144.8645316,144.8645316,144.8645316,144.8645316,0.0054152,144.8645316,TRUE,-0.3,-0.409259259,1,0,0,ansOne,,,,,,,,,,,,,,,,,5,2022-10-29_20h35.14.991,musicalMathTest,2022.2.4,59.97317999
music\calm\instrumentals\Younger Then (90) (Instrumental) by Allebasi.wav,younger then,calm,instrumental,4,90,A,multiply,5,19,95,102,96,100,0,1,1,3,0,4,4,112,,,,,,,,,,,,,,,,,,,,,,,,,,,,,,,158.9654813,158.9654813,158.9654813,158.9654813,158.9654813,0.0053565,158.9654813,TRUE,0.108333333,-0.402777778,1,0,0,ansThree,,,,,,,,,,,,,,,,,5,2022-10-29_20h35.14.991,musicalMathTest,2022.2.4,59.97317999
music\calm\instrumentals\Younger Then (90) (Instrumental) by Allebasi.wav,younger then,calm,instrumental,4,90,A,subtract,53,21,32,40,35,40,0,1,1,3,0,5,5,51,,,,,,,,,,,,,,,,,,,,,,,,,,,,,,,169.7162118,169.7162118,169.7162118,169.7162118,169.7162118,0.0051257,169.7162118,TRUE,-0.103703704,-0.387962963,1,0,0,ansTwo,,,,,,,,,,,,,,,,,5,2022-10-29_20h35.14.991,musicalMathTest,2022.2.4,59.97317999
music\calm\instrumentals\Younger Then (90) (Instrumental) by Allebasi.wav,younger then,calm,instrumental,4,90,A,subtract,54,21,33,35,37,40,0,1,1,3,0,6,6,59,,,,,,,,,,,,,,,,,,,,,,,,,,,,,,,189.3009184,189.3009184,189.3009184,189.3009184,189.3009184,0.0051597,189.3009184,TRUE,-0.10462963,-0.393518519,1,0,0,ansTwo,,,,,,,,,,,,,,,,,5,2022-10-29_20h35.14.991,musicalMathTest,2022.2.4,59.97317999
music\calm\instrumentals\Younger Then (90) (Instrumental) by Allebasi.wav,younger then,calm,instrumental,4,90,A,multiply,10,19,190,192,194,195,0,1,1,3,0,7,7,64,,,,,,,,,,,,,,,,,,,,,,,,,,,,,,,195.6347132,195.6347132,195.6347132,195.6347132,195.6347132,0.0051973,195.6347132,TRUE,-0.1,-0.405555556,1,0,0,ansTwo,,,,,,,,,,,,,,,,,5,2022-10-29_20h35.14.991,musicalMathTest,2022.2.4,59.97317999
music\calm\instrumentals\Younger Then (90) (Instrumental) by Allebasi.wav,younger then,calm,instrumental,4,90,A,multiply,10,19,190,195,191,195,0,1,1,3,0,8,8,104,,,,,,,,,,,,,,,,,,,,,,,,,,,,,,,198.5682174,198.5682174,198.5682174,198.5682174,198.5682174,0.0040855,198.5682174,TRUE,0.106481481,-0.393518519,1,0,0,ansThree,,,,,,,,,,,,,,,,,5,2022-10-29_20h35.14.991,musicalMathTest,2022.2.4,59.97317999
music\calm\instrumentals\Rose Gold (90) (Instrumental) by Cabri x Sub Q Taneous.wav,rose gold,calm,instrumental,3,90,A,multiply,20,10,200,205,210,208,0,2,2,3,0,0,0,107,,,,,,,,,,,,,,,,,,,,,,,,216.8028695,0.0045784,0.55462963,0.048148148,1,0,0,219.0363244,219.0363244,219.0363244,219.0363244,219.0363244,0.0218241,219.0363244,TRUE,0.088888889,-0.402777778,1,0,0,ansThree,211.802773,216.8028695,,,,,,,,,,,,,,,4,2022-10-29_20h17.33.188,musicalMathTest,2022.2.4,60.00963755
music\calm\instrumentals\Rose Gold (90) (Instrumental) by Cabri x Sub Q Taneous.wav,rose gold,calm,instrumental,3,90,A,subtract,49,47,2,5,7,11,0,2,2,3,0,1,1,47,,,,,,,,,,,,,,,,,,,,,,,,,,,,,,,221.9363288,221.9363288,221.9363288,221.9363288,221.9363288,0.0059754,221.9363288,TRUE,-0.093518519,-0.402777778,1,0,0,ansTwo,,,,,,,,,,,,,,,,,4,2022-10-29_20h17.33.188,musicalMathTest,2022.2.4,60.00963755
music\calm\instrumentals\Rose Gold (90) (Instrumental) by Cabri x Sub Q Taneous.wav,rose gold,calm,instrumental,3,90,A,subtract,47,46,1,6,4,8,0,2,2,3,0,2,2,61,,,,,,,,,,,,,,,,,,,,,,,,,,,,,,,228.7864768,228.7864768,228.7864768,228.7864768,228.7864768,0.0065401,228.7864768,TRUE,-0.307407407,-0.39537037,1,0,0,ansOne,,,,,,,,,,,,,,,,,4,2022-10-29_20h17.33.188,musicalMathTest,2022.2.4,60.00963755
music\calm\instrumentals\Rose Gold (90) (Instrumental) by Cabri x Sub Q Taneous.wav,rose gold,calm,instrumental,3,90,A,add,46,12,58,66,61,59,0,2,2,3,0,3,3,10,,,,,,,,,,,,,,,,,,,,,,,,,,,,,,,233.7032453,233.7032453,233.7032453,233.7032453,233.7032453,0.0061672,233.7032453,TRUE,0.103703704,-0.407407407,1,0,0,ansThree,,,,,,,,,,,,,,,,,4,2022-10-29_20h17.33.188,musicalMathTest,2022.2.4,60.00963755
music\calm\instrumentals\Rose Gold (90) (Instrumental) by Cabri x Sub Q Taneous.wav,rose gold,calm,instrumental,3,90,A,multiply,7,5,35,39,43,36,0,2,2,3,0,4,4,84,,,,,,,,,,,,,,,,,,,,,,,,,,,,,,,246.9201629,246.9201629,246.9201629,246.9201629,246.9201629,0.0063644,246.9201629,TRUE,-0.308333333,-0.40462963,1,0,0,ansOne,,,,,,,,,,,,,,,,,4,2022-10-29_20h17.33.188,musicalMathTest,2022.2.4,60.00963755
music\calm\instrumentals\Rose Gold (90) (Instrumental) by Cabri x Sub Q Taneous.wav,rose gold,calm,instrumental,3,90,A,subtract,52,51,1,2,4,7,0,2,2,3,0,5,5,54,,,,,,,,,,,,,,,,,,,,,,,,,,,,,,,256.4037252,256.4037252,256.4037252,256.4037252,256.4037252,0.0060277,256.4037252,TRUE,0.100925926,-0.406481481,1,0,0,ansThree,,,,,,,,,,,,,,,,,4,2022-10-29_20h17.33.188,musicalMathTest,2022.2.4,60.00963755
music\calm\instrumentals\Rose Gold (90) (Instrumental) by Cabri x Sub Q Taneous.wav,rose gold,calm,instrumental,3,90,A,add,51,47,98,102,105,108,0,2,2,3,0,6,6,20,,,,,,,,,,,,,,,,,,,,,,,,,,,,,,,260.6038094,260.6038094,260.6038094,260.6038094,260.6038094,0.0063609,260.6038094,TRUE,-0.1,-0.396296296,1,0,0,ansTwo,,,,,,,,,,,,,,,,,4,2022-10-29_20h17.33.188,musicalMathTest,2022.2.4,60.00963755
music\calm\instrumentals\Rose Gold (90) (Instrumental) by Cabri x Sub Q Taneous.wav,rose gold,calm,instrumental,3,90,A,multiply,5,7,35,41,43,39,0,2,2,3,0,7,7,72,,,,,,,,,,,,,,,,,,,,,,,,,,,,,,,270.0206767,270.0206767,270.0206767,270.0206767,270.0206767,0.0060704,270.0206767,TRUE,0.094444444,-0.396296296,1,0,0,ansThree,,,,,,,,,,,,,,,,,4,2022-10-29_20h17.33.188,musicalMathTest,2022.2.4,60.00963755
music\calm\instrumentals\Rose Gold (90) (Instrumental) by Cabri x Sub Q Taneous.wav,rose gold,calm,instrumental,3,90,A,add,51,34,85,92,88,86,0,2,2,3,0,8,8,15,,,,,,,,,,,,,,,,,,,,,,,,,,,,,,,275.1707846,275.1707846,275.1707846,275.1707846,275.1707846,0.0064451,275.1707846,TRUE,-0.105555556,-0.393518519,1,0,0,ansTwo,,,,,,,,,,,,,,,,,4,2022-10-29_20h17.33.188,musicalMathTest,2022.2.4,60.00963755
music\calm\instrumentals\Rose Gold (90) (Instrumental) by Cabri x Sub Q Taneous.wav,rose gold,calm,instrumental,3,90,A,add,49,47,96,100,102,99,0,2,2,3,0,9,9,16,,,,,,,,,,,,,,,,,,,,,,,,,,,,,,,282.5876095,282.5876095,282.5876095,282.5876095,282.5876095,0.0062276,282.5876095,TRUE,-0.097222222,-0.407407407,1,0,0,ansTwo,,,,,,,,,,,,,,,,,4,2022-10-29_20h17.33.188,musicalMathTest,2022.2.4,60.00963755
music\calm\instrumentals\Rose Gold (90) (Instrumental) by Cabri x Sub Q Taneous.wav,rose gold,calm,instrumental,3,90,A,multiply,13,10,130,137,138,137,0,2,2,3,0,10,10,93,,,,,,,,,,,,,,,,,,,,,,,,,,,,,,,288.4043669,288.4043669,288.4043669,288.4043669,288.4043669,0.006382,288.4043669,TRUE,-0.308333333,-0.398148148,1,0,0,ansOne,,,,,,,,,,,,,,,,,4,2022-10-29_20h17.33.188,musicalMathTest,2022.2.4,60.00963755
music\calm\instrumentals\Rose Gold (90) (Instrumental) by Cabri x Sub Q Taneous.wav,rose gold,calm,instrumental,3,90,A,add,61,59,120,121,122,124,0,2,2,3,0,11,11,9,,,,,,,,,,,,,,,,,,,,,,,,,,,,,,,290.4377393,290.4377393,290.4377393,290.4377393,290.4377393,0.0061868,290.4377393,TRUE,-0.287962963,-0.396296296,1,0,0,ansOne,,,,,,,,,,,,,,,,,4,2022-10-29_20h17.33.188,musicalMathTest,2022.2.4,60.00963755
music\calm\instrumentals\Rose Gold (90) (Instrumental) by Cabri x Sub Q Taneous.wav,rose gold,calm,instrumental,3,90,A,subtract,47,33,14,21,18,4,0,2,2,3,0,12,12,35,,,,,,,,,,,,,,,,,,,,,,,,,,,,,,,297.4712533,297.4712533,297.4712533,297.4712533,297.4712533,0.0063766,297.4712533,TRUE,-0.082407407,-0.391666667,1,0,0,ansTwo,,,,,,,,,,,,,,,,,4,2022-10-29_20h17.33.188,musicalMathTest,2022.2.4,60.00963755