songfilename,SongName,Speed,Condition,fileblock,testdurationsec,songCondFile,CategoryType,NumOne,NumTwo,Correct,Incorrect1,Incorrect2,Incorrect3,musicTypeLoop.thisRepN,musicTypeLoop.thisTrialN,musicTypeLoop.thisN,musicTypeLoop.thisIndex,trialsMath.thisRepN,trialsMath.thisTrialN,trialsMath.thisN,trialsMath.thisIndex,partInfoImage.started,partinfomouse.started,partinfomouse.x,partinfomouse.y,partinfomouse.leftButton,partinfomouse.midButton,partinfomouse.rightButton,partInfoImage_2.started,partinfomouse_2.started,consentBox.started,partinfomouse_2.x,partinfomouse_2.y,partinfomouse_2.leftButton,partinfomouse_2.midButton,partinfomouse_2.rightButton,partinfomouse_2.clicked_name,partInfoImage_3.started,partinfomouse_3.started,partinfomouse_3.x,partinfomouse_3.y,partinfomouse_3.leftButton,partinfomouse_3.midButton,partinfomouse_3.rightButton,partInfoImage_4.started,partinfomouse_4.started,partinfomouse_4.x,partinfomouse_4.y,partinfomouse_4.leftButton,partinfomouse_4.midButton,partinfomouse_4.rightButton,question.started,ansOne.started,ansTwo.started,ansThree.started,ansFour.started,mouseclickResponse.started,debuginfo.started,correctClick,mouseclickResponse.x,mouseclickResponse.y,mouseclickResponse.leftButton,mouseclickResponse.midButton,mouseclickResponse.rightButton,mouseclickResponse.clicked_name,text.started,text.stopped,partInfoImage_5.started,partinfomouse_5.started,partinfomouse_5.x,partinfomouse_5.y,partinfomouse_5.leftButton,partinfomouse_5.midButton,partinfomouse_5.rightButton,partInfoImage_6.started,partinfomouse_6.started,partinfomouse_6.x,partinfomouse_6.y,partinfomouse_6.leftButton,partinfomouse_6.midButton,partinfomouse_6.rightButton,session,date,expName,psychopyVersion,frameRate
,,,,,,,,,,,,,,,,,,,,,,,,,,,,,,,,,,,,,,,,,,,,,,,,,,,,,,,,,,,,,,,,,,,,,,,,,,,,,,,,,,,,,,
,,,,,,,,,,,,,,,,,,,,,,,,,,,,,,,,,,,,,,,,,,,,,,,,,,,,,,,,,,,,,,,,,,,,,,,,,,,,,,,,,,,,,,
,,,,,,,,,,,,,,,,,,,,,,,,,,,,,,,,,,,,,,,,,,,,,,,,,,,,,,,,,,,,,,,,,,,,,,,,,,,,,,,,,,,,,,
music\silence.wav,silent,silent,silent,4,90,B,subtract,42,37,5,12,11,9,0,2,2,4,0,0,0,54,,,,,,,,,,,,,,,,,,,,,,,,206.8190657,0.0039631,-0.048148148,-0.150925926,1,0,0,216.1860559,216.1860559,216.1860559,216.1860559,216.1860559,0.0131153,216.1860559,FALSE,-0.291666667,-0.403703704,1,0,0,ansOne,201.8185164,206.8190657,,,,,,,,,,,,,,,5,2022-10-29_20h35.14.991,musicalMathTest,2022.2.4,59.97317999
music\silence.wav,silent,silent,silent,4,90,B,multiply,17,10,170,176,180,172,0,2,2,4,0,1,1,69,,,,,,,,,,,,,,,,,,,,,,,,,,,,,,,232.8539733,232.8539733,232.8539733,232.8539733,232.8539733,0.0056304,232.8539733,TRUE,-0.299074074,-0.417592593,1,0,0,ansOne,,,,,,,,,,,,,,,,,5,2022-10-29_20h35.14.991,musicalMathTest,2022.2.4,59.97317999
music\silence.wav,silent,silent,silent,4,90,B,subtract,15,10,5,11,8,7,0,2,2,4,0,2,2,61,,,,,,,,,,,,,,,,,,,,,,,,,,,,,,,234.3040582,234.3040582,234.3040582,234.3040582,234.3040582,0.0050348,234.3040582,TRUE,-0.1,-0.399074074,1,0,0,ansTwo,,,,,,,,,,,,,,,,,5,2022-10-29_20h35.14.991,musicalMathTest,2022.2.4,59.97317999
music\silence.wav,silent,silent,silent,4,90,B,multiply,15,10,150,153,157,151,0,2,2,4,0,3,3,75,,,,,,,,,,,,,,,,,,,,,,,,,,,,,,,237.0541597,237.0541597,237.0541597,237.0541597,237.0541597,0.0052518,237.0541597,TRUE,0.115740741,-0.406481481,1,0,0,ansThree,,,,,,,,,,,,,,,,,5,2022-10-29_20h35.14.991,musicalMathTest,2022.2.4,59.97317999
music\silence.wav,silent,silent,silent,4,90,B,subtract,60,55,5,13,12,8,0,2,2,4,0,4,4,56,,,,,,,,,,,,,,,,,,,,,,,,,,,,,,,239.3544854,239.3544854,239.3544854,239.3544854,239.3544854,0.004936,239.3544854,TRUE,-0.09537037,-0.403703704,1,0,0,ansTwo,,,,,,,,,,,,,,,,,5,2022-10-29_20h35.14.991,musicalMathTest,2022.2.4,59.97317999
music\silence.wav,silent,silent,silent,4,90,B,multiply,3,5,15,22,23,19,0,2,2,4,0,5,5,98,,,,,,,,,,,,,,,,,,,,,,,,,,,,,,,243.5713401,243.5713401,243.5713401,243.5713401,243.5713401,0.0051393,243.5713401,TRUE,-0.286111111,-0.400925926,1,0,0,ansOne,,,,,,,,,,,,,,,,,5,2022-10-29_20h35.14.991,musicalMathTest,2022.2.4,59.97317999
music\silence.wav,silent,silent,silent,4,90,B,multiply,5,4,20,25,28,26,0,2,2,4,0,6,6,72,,,,,,,,,,,,,,,,,,,,,,,,,,,,,,,245.7048531,245.7048531,245.7048531,245.7048531,245.7048531,0.0048824,245.7048531,TRUE,0.106481481,-0.402777778,1,0,0,ansThree,,,,,,,,,,,,,,,,,5,2022-10-29_20h35.14.991,musicalMathTest,2022.2.4,59.97317999
music\silence.wav,silent,silent,silent,4,90,B,multiply,3,10,30,31,38,40,0,2,2,4,0,7,7,74,,,,,,,,,,,,,,,,,,,,,,,,,,,,,,,248.2884615,248.2884615,248.2884615,248.2884615,248.2884615,0.0050646,248.2884615,TRUE,-0.090740741,-0.410185185,1,0,0,ansTwo,,,,,,,,,,,,,,,,,5,2022-10-29_20h35.14.991,musicalMathTest,2022.2.4,59.97317999
music\silence.wav,silent,silent,silent,4,90,B,add,16,15,31,35,34,38,0,2,2,4,0,8,8,14,,,,,,,,,,,,,,,,,,,,,,,,,,,,,,,249.8551673,249.8551673,249.8551673,249.8551673,249.8551673,0.005095,249.8551673,TRUE,-0.292592593,-0.402777778,1,0,0,ansOne,,,,,,,,,,,,,,,,,5,2022-10-29_20h35.14.991,musicalMathTest,2022.2.4,59.97317999
music\silence.wav,silent,silent,silent,4,90,B,multiply,17,10,170,176,175,174,0,2,2,4,0,9,9,109,,,,,,,,,,,,,,,,,,,,,,,,,,,,,,,254.2721699,254.2721699,254.2721699,254.2721699,254.2721699,0.0051774,254.2721699,TRUE,-0.307407407,-0.403703704,1,0,0,ansOne,,,,,,,,,,,,,,,,,5,2022-10-29_20h35.14.991,musicalMathTest,2022.2.4,59.97317999
music\silence.wav,silent,silent,silent,4,90,B,subtract,20,16,4,11,10,14,0,2,2,4,0,10,10,37,,,,,,,,,,,,,,,,,,,,,,,,,,,,,,,256.4222653,256.4222653,256.4222653,256.4222653,256.4222653,0.005259,256.4222653,TRUE,0.107407407,-0.40462963,1,0,0,ansThree,,,,,,,,,,,,,,,,,5,2022-10-29_20h35.14.991,musicalMathTest,2022.2.4,59.97317999
music\silence.wav,silent,silent,silent,4,90,B,multiply,4,10,40,45,42,48,0,2,2,4,0,11,11,108,,,,,,,,,,,,,,,,,,,,,,,,,,,,,,,262.7060694,262.7060694,262.7060694,262.7060694,262.7060694,0.0054043,262.7060694,TRUE,-0.100925926,-0.409259259,1,0,0,ansTwo,,,,,,,,,,,,,,,,,5,2022-10-29_20h35.14.991,musicalMathTest,2022.2.4,59.97317999
music\silence.wav,silent,silent,silent,4,90,B,multiply,15,10,150,151,153,157,0,2,2,4,0,12,12,107,,,,,,,,,,,,,,,,,,,,,,,,,,,,,,,264.1228021,264.1228021,264.1228021,264.1228021,264.1228021,0.0053258,264.1228021,TRUE,-0.287962963,-0.401851852,1,0,0,ansOne,,,,,,,,,,,,,,,,,5,2022-10-29_20h35.14.991,musicalMathTest,2022.2.4,59.97317999
music\silence.wav,silent,silent,silent,4,90,B,subtract,55,39,16,24,20,21,0,2,2,4,0,13,13,36,,,,,,,,,,,,,,,,,,,,,,,,,,,,,,,265.9562887,265.9562887,265.9562887,265.9562887,265.9562887,0.0055596,265.9562887,TRUE,-0.294444444,-0.413888889,1,0,0,ansOne,,,,,,,,,,,,,,,,,5,2022-10-29_20h35.14.991,musicalMathTest,2022.2.4,59.97317999
music\silence.wav,silent,silent,silent,4,90,B,subtract,40,39,1,6,3,9,0,2,2,4,0,14,14,46,,,,,,,,,,,,,,,,,,,,,,,,,,,,,,,272.9234006,272.9234006,272.9234006,272.9234006,272.9234006,0.0049587,272.9234006,TRUE,-0.101851852,-0.409259259,1,0,0,ansTwo,,,,,,,,,,,,,,,,,5,2022-10-29_20h35.14.991,musicalMathTest,2022.2.4,59.97317999
music\silence.wav,silent,silent,silent,4,90,B,multiply,3,10,30,34,37,31,0,2,2,4,0,15,15,90,,,,,,,,,,,,,,,,,,,,,,,,,,,,,,,276.7736771,276.7736771,276.7736771,276.7736771,276.7736771,0.0053179,276.7736771,TRUE,-0.105555556,-0.398148148,1,0,0,ansTwo,,,,,,,,,,,,,,,,,5,2022-10-29_20h35.14.991,musicalMathTest,2022.2.4,59.97317999
music\silence.wav,silent,silent,silent,4,90,B,subtract,25,23,2,9,5,8,0,2,2,4,0,16,16,51,,,,,,,,,,,,,,,,,,,,,,,,,,,,,,,278.3071192,278.3071192,278.3071192,278.3071192,278.3071192,0.0054518,278.3071192,TRUE,0.099074074,-0.389814815,1,0,0,ansThree,,,,,,,,,,,,,,,,,5,2022-10-29_20h35.14.991,musicalMathTest,2022.2.4,59.97317999
music\silence.wav,silent,silent,silent,4,90,B,subtract,37,16,21,28,11,15,0,2,2,4,0,17,17,34,,,,,,,,,,,,,,,,,,,,,,,,,,,,,,,280.6907169,280.6907169,280.6907169,280.6907169,280.6907169,0.005209,280.6907169,FALSE,0.106481481,-0.406481481,1,0,0,ansThree,,,,,,,,,,,,,,,,,5,2022-10-29_20h35.14.991,musicalMathTest,2022.2.4,59.97317999
music\silence.wav,silent,silent,silent,4,90,B,multiply,10,4,40,48,45,46,0,2,2,4,0,18,18,80,,,,,,,,,,,,,,,,,,,,,,,,,,,,,,,290.8080359,290.8080359,290.8080359,290.8080359,290.8080359,0.0053099,290.8080359,TRUE,0.096296296,-0.400925926,1,0,0,ansThree,,,,,,,,,,,,,,,,,5,2022-10-29_20h35.14.991,musicalMathTest,2022.2.4,59.97317999
music\silence.wav,silent,silent,silent,4,90,B,multiply,5,15,75,77,85,77,0,2,2,4,0,19,19,71,,,,,,,,,,,,,,,,,,,,,,,,,,,,,,,292.7415376,292.7415376,292.7415376,292.7415376,292.7415376,0.0051246,292.7415376,TRUE,0.105555556,-0.4,1,0,0,ansThree,,,,,,,,,,,,,,,,,5,2022-10-29_20h35.14.991,musicalMathTest,2022.2.4,59.97317999
music\active\instrumentals\Like This (90) (Instrumental) by MUNNYCAT.wav,like this,active,instrumental,1,90,B,add,55,19,74,82,77,81,0,1,1,2,0,0,0,13,,,,,,,,,,,,,,,,,,,,,,,,132.7730871,0.0046494,0.37037037,-0.02962963,1,0,0,135.8564971,135.8564971,135.8564971,135.8564971,135.8564971,0.0243817,135.8564971,TRUE,-0.084259259,-0.400925926,1,0,0,ansTwo,127.7729785,132.7730871,,,,,,,,,,,,,,,2,2022-10-29_19h58.00.993,musicalMathTest,2022.2.4,60.00747693
music\active\instrumentals\Like This (90) (Instrumental) by MUNNYCAT.wav,like this,active,instrumental,1,90,B,add,40,37,77,83,85,79,0,1,1,2,0,1,1,27,,,,,,,,,,,,,,,,,,,,,,,,,,,,,,,145.5733524,145.5733524,145.5733524,145.5733524,145.5733524,0.0063801,145.5733524,TRUE,-0.093518519,-0.393518519,1,0,0,ansTwo,,,,,,,,,,,,,,,,,2,2022-10-29_19h58.00.993,musicalMathTest,2022.2.4,60.00747693
music\active\instrumentals\Like This (90) (Instrumental) by MUNNYCAT.wav,like this,active,instrumental,1,90,B,subtract,19,19,0,2,1,8,0,1,1,2,0,2,2,41,,,,,,,,,,,,,,,,,,,,,,,,,,,,,,,151.3568045,151.3568045,151.3568045,151.3568045,151.3568045,0.0060975,151.3568045,TRUE,-0.100925926,-0.40462963,1,0,0,ansTwo,,,,,,,,,,,,,,,,,2,2022-10-29_19h58.00.993,musicalMathTest,2022.2.4,60.00747693
music\active\instrumentals\Like This (90) (Instrumental) by MUNNYCAT.wav,like this,active,instrumental,1,90,B,multiply,10,4,40,46,42,45,0,1,1,2,0,3,3,96,,,,,,,,,,,,,,,,,,,,,,,,,,,,,,,154.9068761,154.9068761,154.9068761,154.9068761,154.9068761,0.0063996,154.9068761,TRUE,0.10462963,-0.40462963,1,0,0,ansThree,,,,,,,,,,,,,,,,,2,2022-10-29_19h58.00.993,musicalMathTest,2022.2.4,60.00747693
music\active\instrumentals\Like This (90) (Instrumental) by MUNNYCAT.wav,like this,active,instrumental,1,90,B,multiply,5,15,75,76,78,77,0,1,1,2,0,4,4,111,,,,,,,,,,,,,,,,,,,,,,,,,,,,,,,157.0069069,157.0069069,157.0069069,157.0069069,157.0069069,0.0061837,157.0069069,TRUE,-0.099074074,-0.406481481,1,0,0,ansTwo,,,,,,,,,,,,,,,,,2,2022-10-29_19h58.00.993,musicalMathTest,2022.2.4,60.00747693
music\active\instrumentals\Like This (90) (Instrumental) by MUNNYCAT.wav,like this,active,instrumental,1,90,B,add,20,16,36,42,44,43,0,1,1,2,0,5,5,6,,,,,,,,,,,,,,,,,,,,,,,,,,,,,,,170.2572363,170.2572363,170.2572363,170.2572363,170.2572363,0.0064727,170.2572363,TRUE,-0.113888889,-0.396296296,1,0,0,ansTwo,,,,,,,,,,,,,,,,,2,2022-10-29_19h58.00.993,musicalMathTest,2022.2.4,60.00747693
music\active\instrumentals\Like This (90) (Instrumental) by MUNNYCAT.wav,like this,active,instrumental,1,90,B,add,19,19,38,43,48,42,0,1,1,2,0,6,6,10,,,,,,,,,,,,,,,,,,,,,,,,,,,,,,,173.9906125,173.9906125,173.9906125,173.9906125,173.9906125,0.0062411,173.9906125,TRUE,0.098148148,-0.40462963,1,0,0,ansThree,,,,,,,,,,,,,,,,,2,2022-10-29_19h58.00.993,musicalMathTest,2022.2.4,60.00747693
music\active\instrumentals\Like This (90) (Instrumental) by MUNNYCAT.wav,like this,active,instrumental,1,90,B,multiply,15,10,150,153,155,159,0,1,1,2,0,7,7,67,,,,,,,,,,,,,,,,,,,,,,,,,,,,,,,181.3907691,181.3907691,181.3907691,181.3907691,181.3907691,0.0065979,181.3907691,TRUE,0.092592593,-0.4,1,0,0,ansThree,,,,,,,,,,,,,,,,,2,2022-10-29_19h58.00.993,musicalMathTest,2022.2.4,60.00747693
music\active\instrumentals\Like This (90) (Instrumental) by MUNNYCAT.wav,like this,active,instrumental,1,90,B,subtract,37,19,18,8,26,22,0,1,1,2,0,8,8,38,,,,,,,,,,,,,,,,,,,,,,,,,,,,,,,183.4241333,183.4241333,183.4241333,183.4241333,183.4241333,0.0062077,183.4241333,TRUE,-0.1,-0.399074074,1,0,0,ansTwo,,,,,,,,,,,,,,,,,2,2022-10-29_19h58.00.993,musicalMathTest,2022.2.4,60.00747693
music\active\instrumentals\Like This (90) (Instrumental) by MUNNYCAT.wav,like this,active,instrumental,1,90,B,subtract,16,15,1,7,3,7,0,1,1,2,0,9,9,45,,,,,,,,,,,,,,,,,,,,,,,,,,,,,,,213.9414374,213.9414374,213.9414374,213.9414374,213.9414374,0.0062876,213.9414374,TRUE,-0.098148148,-0.393518519,1,0,0,ansTwo,,,,,,,,,,,,,,,,,2,2022-10-29_19h58.00.993,musicalMathTest,2022.2.4,60.00747693
music\active\instrumentals\Like This (90) (Instrumental) by MUNNYCAT.wav,like this,active,instrumental,1,90,B,subtract,40,37,3,6,7,9,0,1,1,2,0,10,10,58,,,,,,,,,,,,,,,,,,,,,,,,,,,,,,,217.3081886,217.3081886,217.3081886,217.3081886,217.3081886,0.0060365,217.3081886,TRUE,-0.296296296,-0.39537037,1,0,0,ansOne,,,,,,,,,,,,,,,,,2,2022-10-29_19h58.00.993,musicalMathTest,2022.2.4,60.00747693
music\active\instrumentals\Like This (90) (Instrumental) by MUNNYCAT.wav,like this,active,instrumental,1,90,B,multiply,17,10,170,175,171,174,0,1,1,2,0,11,11,77,,,,,,,,,,,,,,,,,,,,,,,,,,,,,,,221.6583203,221.6583203,221.6583203,221.6583203,221.6583203,0.0065614,221.6583203,TRUE,-0.311111111,-0.405555556,1,0,0,ansOne,,,,,,,,,,,,,,,,,2,2022-10-29_19h58.00.993,musicalMathTest,2022.2.4,60.00747693
music\calm\vocals\Rose Gold (90) by Cabri x Sub Q Taneous.wav,rose gold,calm,vocals,1,90,B,multiply,7,5,35,39,43,36,0,2,2,3,0,0,0,84,,,,,,,,,,,,,,,,,,,,,,,,230.8917833,0.0048377,0.511111111,0.108333333,1,0,0,232.6584966,232.6584966,232.6584966,232.6584966,232.6584966,0.0204838,232.6584966,TRUE,-0.097222222,-0.405555556,1,0,0,ansTwo,225.89169,230.8917833,,,,,,,,,,,,,,,2,2022-10-29_19h58.00.993,musicalMathTest,2022.2.4,60.00747693
music\calm\vocals\Rose Gold (90) by Cabri x Sub Q Taneous.wav,rose gold,calm,vocals,1,90,B,add,59,47,106,111,113,108,0,2,2,3,0,1,1,28,,,,,,,,,,,,,,,,,,,,,,,,,,,,,,,243.0586874,243.0586874,243.0586874,243.0586874,243.0586874,0.0063955,243.0586874,TRUE,0.085185185,-0.399074074,1,0,0,ansThree,,,,,,,,,,,,,,,,,2,2022-10-29_19h58.00.993,musicalMathTest,2022.2.4,60.00747693
music\calm\vocals\Rose Gold (90) by Cabri x Sub Q Taneous.wav,rose gold,calm,vocals,1,90,B,multiply,20,10,200,202,206,204,0,2,2,3,0,2,2,91,,,,,,,,,,,,,,,,,,,,,,,,,,,,,,,252.4755843,252.4755843,252.4755843,252.4755843,252.4755843,0.0064692,252.4755843,TRUE,0.090740741,-0.399074074,1,0,0,ansThree,,,,,,,,,,,,,,,,,2,2022-10-29_19h58.00.993,musicalMathTest,2022.2.4,60.00747693
music\calm\vocals\Rose Gold (90) by Cabri x Sub Q Taneous.wav,rose gold,calm,vocals,1,90,B,multiply,10,7,70,80,77,80,0,2,2,3,0,3,3,64,,,,,,,,,,,,,,,,,,,,,,,,,,,,,,,254.7422861,254.7422861,254.7422861,254.7422861,254.7422861,0.0062088,254.7422861,TRUE,-0.299074074,-0.401851852,1,0,0,ansOne,,,,,,,,,,,,,,,,,2,2022-10-29_19h58.00.993,musicalMathTest,2022.2.4,60.00747693
music\calm\vocals\Rose Gold (90) by Cabri x Sub Q Taneous.wav,rose gold,calm,vocals,1,90,B,multiply,20,5,100,101,104,108,0,2,2,3,0,4,4,99,,,,,,,,,,,,,,,,,,,,,,,,,,,,,,,258.8757206,258.8757206,258.8757206,258.8757206,258.8757206,0.0069091,258.8757206,TRUE,-0.096296296,-0.4,1,0,0,ansTwo,,,,,,,,,,,,,,,,,2,2022-10-29_19h58.00.993,musicalMathTest,2022.2.4,60.00747693
music\calm\vocals\Rose Gold (90) by Cabri x Sub Q Taneous.wav,rose gold,calm,vocals,1,90,B,multiply,7,10,70,78,71,80,0,2,2,3,0,5,5,92,,,,,,,,,,,,,,,,,,,,,,,,,,,,,,,265.7258535,265.7258535,265.7258535,265.7258535,265.7258535,0.0060991,265.7258535,TRUE,-0.306481481,-0.396296296,1,0,0,ansOne,,,,,,,,,,,,,,,,,2,2022-10-29_19h58.00.993,musicalMathTest,2022.2.4,60.00747693
music\calm\vocals\Rose Gold (90) by Cabri x Sub Q Taneous.wav,rose gold,calm,vocals,1,90,B,subtract,48,47,1,8,10,7,0,2,2,3,0,6,6,55,,,,,,,,,,,,,,,,,,,,,,,,,,,,,,,272.6760141,272.6760141,272.6760141,272.6760141,272.6760141,0.0063579,272.6760141,TRUE,-0.294444444,-0.405555556,1,0,0,ansOne,,,,,,,,,,,,,,,,,2,2022-10-29_19h58.00.993,musicalMathTest,2022.2.4,60.00747693
music\calm\vocals\Rose Gold (90) by Cabri x Sub Q Taneous.wav,rose gold,calm,vocals,1,90,B,multiply,10,13,130,137,133,138,0,2,2,3,0,7,7,65,,,,,,,,,,,,,,,,,,,,,,,,,,,,,,,277.6261151,277.6261151,277.6261151,277.6261151,277.6261151,0.0063248,277.6261151,TRUE,-0.290740741,-0.405555556,1,0,0,ansOne,,,,,,,,,,,,,,,,,2,2022-10-29_19h58.00.993,musicalMathTest,2022.2.4,60.00747693
music\calm\vocals\Rose Gold (90) by Cabri x Sub Q Taneous.wav,rose gold,calm,vocals,1,90,B,multiply,10,20,200,205,206,208,0,2,2,3,0,8,8,95,,,,,,,,,,,,,,,,,,,,,,,,,,,,,,,281.1428788,281.1428788,281.1428788,281.1428788,281.1428788,0.0064216,281.1428788,TRUE,-0.293518519,-0.405555556,1,0,0,ansOne,,,,,,,,,,,,,,,,,2,2022-10-29_19h58.00.993,musicalMathTest,2022.2.4,60.00747693
music\calm\vocals\Rose Gold (90) by Cabri x Sub Q Taneous.wav,rose gold,calm,vocals,1,90,B,add,46,34,80,90,83,90,0,2,2,3,0,9,9,2,,,,,,,,,,,,,,,,,,,,,,,,,,,,,,,283.2095349,283.2095349,283.2095349,283.2095349,283.2095349,0.0060669,283.2095349,TRUE,-0.306481481,-0.403703704,1,0,0,ansOne,,,,,,,,,,,,,,,,,2,2022-10-29_19h58.00.993,musicalMathTest,2022.2.4,60.00747693
music\calm\vocals\Rose Gold (90) by Cabri x Sub Q Taneous.wav,rose gold,calm,vocals,1,90,B,subtract,41,34,7,9,13,11,0,2,2,3,0,10,10,36,,,,,,,,,,,,,,,,,,,,,,,,,,,,,,,289.0430023,289.0430023,289.0430023,289.0430023,289.0430023,0.0064562,289.0430023,TRUE,0.097222222,-0.409259259,1,0,0,ansThree,,,,,,,,,,,,,,,,,2,2022-10-29_19h58.00.993,musicalMathTest,2022.2.4,60.00747693
music\calm\vocals\Rose Gold (90) by Cabri x Sub Q Taneous.wav,rose gold,calm,vocals,1,90,B,multiply,10,10,100,103,107,101,0,2,2,3,0,11,11,62,,,,,,,,,,,,,,,,,,,,,,,,,,,,,,,297.526542,297.526542,297.526542,297.526542,297.526542,0.0061859,297.526542,TRUE,0.096296296,-0.403703704,1,0,0,ansThree,,,,,,,,,,,,,,,,,2,2022-10-29_19h58.00.993,musicalMathTest,2022.2.4,60.00747693
music\calm\vocals\Rose Gold (90) by Cabri x Sub Q Taneous.wav,rose gold,calm,vocals,1,90,B,add,46,41,87,93,95,99,0,2,2,3,0,12,12,21,,,,,,,,,,,,,,,,,,,,,,,,,,,,,,,301.7766196,301.7766196,301.7766196,301.7766196,301.7766196,0.0065822,301.7766196,TRUE,-0.300925926,-0.405555556,1,0,0,ansOne,,,,,,,,,,,,,,,,,2,2022-10-29_19h58.00.993,musicalMathTest,2022.2.4,60.00747693
music\calm\vocals\Rose Gold (90) by Cabri x Sub Q Taneous.wav,rose gold,calm,vocals,1,90,B,multiply,20,5,100,106,108,105,0,2,2,3,0,13,13,83,,,,,,,,,,,,,,,,,,,,,,,,,,,,,,,305.8600511,305.8600511,305.8600511,305.8600511,305.8600511,0.00621,305.8600511,TRUE,-0.110185185,-0.4,1,0,0,ansTwo,,,,,,,,,,,,,,,,,2,2022-10-29_19h58.00.993,musicalMathTest,2022.2.4,60.00747693
music\calm\vocals\Rose Gold (90) by Cabri x Sub Q Taneous.wav,rose gold,calm,vocals,1,90,B,multiply,5,13,65,72,69,67,0,2,2,3,0,14,14,73,,,,,,,,,,,,,,,,,,,,,,,,,,,,,,,309.6434553,309.6434553,309.6434553,309.6434553,309.6434553,0.0064585,309.6434553,TRUE,0.109259259,-0.401851852,1,0,0,ansThree,,,,,,,,,,,,,,,,,2,2022-10-29_19h58.00.993,musicalMathTest,2022.2.4,60.00747693
music\calm\vocals\Rose Gold (90) by Cabri x Sub Q Taneous.wav,rose gold,calm,vocals,1,90,B,add,63,59,122,125,132,126,0,2,2,3,0,15,15,6,,,,,,,,,,,,,,,,,,,,,,,,,,,,,,,317.9936364,317.9936364,317.9936364,317.9936364,317.9936364,0.0065078,317.9936364,TRUE,-0.098148148,-0.403703704,1,0,0,ansTwo,,,,,,,,,,,,,,,,,2,2022-10-29_19h58.00.993,musicalMathTest,2022.2.4,60.00747693
music\active\vocals\Someone Like You (90) (Chorus Vocals) by Poison Beaches.wav,someone like you,active,vocals,2,90,B,multiply,10,7,70,77,75,80,0,0,0,1,0,0,0,96,,,,,,,,,,,,,,,,,,,,,,,,85.2185761,0.0286272,0.092592593,0.074074074,1,0,0,88.0851522,88.0851522,88.0851522,88.0851522,88.0851522,0.0447745,88.0851522,TRUE,-0.291666667,-0.4,1,0,0,ansOne,,,,,,,,,,,,,,,,,3,2022-10-29_20h13.44.058,musicalMathTest,2022.2.4,60.00024003
music\active\vocals\Someone Like You (90) (Chorus Vocals) by Poison Beaches.wav,someone like you,active,vocals,2,90,B,multiply,7,10,70,73,75,74,0,0,0,1,0,1,1,108,,,,,,,,,,,,,,,,,,,,,,,,,,,,,,,96.3526201,96.3526201,96.3526201,96.3526201,96.3526201,0.0080193,96.3526201,TRUE,0.094444444,-0.400925926,1,0,0,ansThree,,,,,,,,,,,,,,,,,3,2022-10-29_20h13.44.058,musicalMathTest,2022.2.4,60.00024003
music\active\vocals\Someone Like You (90) (Chorus Vocals) by Poison Beaches.wav,someone like you,active,vocals,2,90,B,subtract,59,46,13,20,19,18,0,0,0,1,0,2,2,53,,,,,,,,,,,,,,,,,,,,,,,,,,,,,,,98.8693803,98.8693803,98.8693803,98.8693803,98.8693803,0.0090218,98.8693803,TRUE,-0.292592593,-0.397222222,1,0,0,ansOne,,,,,,,,,,,,,,,,,3,2022-10-29_20h13.44.058,musicalMathTest,2022.2.4,60.00024003
music\active\vocals\Someone Like You (90) (Chorus Vocals) by Poison Beaches.wav,someone like you,active,vocals,2,90,B,subtract,47,33,14,21,18,4,0,0,0,1,0,3,3,35,,,,,,,,,,,,,,,,,,,,,,,,,,,,,,,109.3035388,109.3035388,109.3035388,109.3035388,109.3035388,0.0053862,109.3035388,TRUE,0.107407407,-0.401851852,1,0,0,ansThree,,,,,,,,,,,,,,,,,3,2022-10-29_20h13.44.058,musicalMathTest,2022.2.4,60.00024003
music\active\vocals\Someone Like You (90) (Chorus Vocals) by Poison Beaches.wav,someone like you,active,vocals,2,90,B,multiply,10,7,70,80,77,80,0,0,0,1,0,4,4,64,,,,,,,,,,,,,,,,,,,,,,,,,,,,,,,120.554305,120.554305,120.554305,120.554305,120.554305,0.0055144,120.554305,TRUE,-0.102777778,-0.405555556,1,0,0,ansTwo,,,,,,,,,,,,,,,,,3,2022-10-29_20h13.44.058,musicalMathTest,2022.2.4,60.00024003
music\active\vocals\Someone Like You (90) (Chorus Vocals) by Poison Beaches.wav,someone like you,active,vocals,2,90,B,multiply,10,13,130,133,135,139,0,0,0,1,0,5,5,97,,,,,,,,,,,,,,,,,,,,,,,,,,,,,,,122.6377678,122.6377678,122.6377678,122.6377678,122.6377678,0.0055951,122.6377678,TRUE,0.101851852,-0.39537037,1,0,0,ansThree,,,,,,,,,,,,,,,,,3,2022-10-29_20h13.44.058,musicalMathTest,2022.2.4,60.00024003
music\active\vocals\Someone Like You (90) (Chorus Vocals) by Poison Beaches.wav,someone like you,active,vocals,2,90,B,multiply,10,10,100,103,105,110,0,0,0,1,0,6,6,66,,,,,,,,,,,,,,,,,,,,,,,,,,,,,,,127.2881819,127.2881819,127.2881819,127.2881819,127.2881819,0.0052085,127.2881819,TRUE,-0.302777778,-0.400925926,1,0,0,ansOne,,,,,,,,,,,,,,,,,3,2022-10-29_20h13.44.058,musicalMathTest,2022.2.4,60.00024003
music\active\vocals\Someone Like You (90) (Chorus Vocals) by Poison Beaches.wav,someone like you,active,vocals,2,90,B,subtract,47,12,35,36,42,40,0,0,0,1,0,7,7,31,,,,,,,,,,,,,,,,,,,,,,,,,,,,,,,130.2382112,130.2382112,130.2382112,130.2382112,130.2382112,0.0073024,130.2382112,TRUE,-0.102777778,-0.4,1,0,0,ansTwo,,,,,,,,,,,,,,,,,3,2022-10-29_20h13.44.058,musicalMathTest,2022.2.4,60.00024003
music\active\vocals\Someone Like You (90) (Chorus Vocals) by Poison Beaches.wav,someone like you,active,vocals,2,90,B,multiply,20,10,200,208,206,208,0,0,0,1,0,8,8,75,,,,,,,,,,,,,,,,,,,,,,,,,,,,,,,134.8219419,134.8219419,134.8219419,134.8219419,134.8219419,0.0054717,134.8219419,TRUE,-0.093518519,-0.412037037,1,0,0,ansTwo,,,,,,,,,,,,,,,,,3,2022-10-29_20h13.44.058,musicalMathTest,2022.2.4,60.00024003
music\active\vocals\Someone Like You (90) (Chorus Vocals) by Poison Beaches.wav,someone like you,active,vocals,2,90,B,multiply,5,20,100,103,102,101,0,0,0,1,0,9,9,71,,,,,,,,,,,,,,,,,,,,,,,,,,,,,,,139.3889193,139.3889193,139.3889193,139.3889193,139.3889193,0.0052427,139.3889193,TRUE,0.122222222,-0.406481481,1,0,0,ansThree,,,,,,,,,,,,,,,,,3,2022-10-29_20h13.44.058,musicalMathTest,2022.2.4,60.00024003
music\active\vocals\Someone Like You (90) (Chorus Vocals) by Poison Beaches.wav,someone like you,active,vocals,2,90,B,subtract,47,34,13,16,15,18,0,0,0,1,0,10,10,39,,,,,,,,,,,,,,,,,,,,,,,,,,,,,,,142.9392308,142.9392308,142.9392308,142.9392308,142.9392308,0.0056465,142.9392308,TRUE,-0.087962963,-0.401851852,1,0,0,ansTwo,,,,,,,,,,,,,,,,,3,2022-10-29_20h13.44.058,musicalMathTest,2022.2.4,60.00024003
music\active\vocals\Someone Like You (90) (Chorus Vocals) by Poison Beaches.wav,someone like you,active,vocals,2,90,B,add,59,41,100,110,107,110,0,0,0,1,0,11,11,25,,,,,,,,,,,,,,,,,,,,,,,,,,,,,,,149.8896597,149.8896597,149.8896597,149.8896597,149.8896597,0.0068592,149.8896597,TRUE,-0.32037037,-0.400925926,1,0,0,ansOne,,,,,,,,,,,,,,,,,3,2022-10-29_20h13.44.058,musicalMathTest,2022.2.4,60.00024003
music\active\vocals\Someone Like You (90) (Chorus Vocals) by Poison Beaches.wav,someone like you,active,vocals,2,90,B,subtract,60,59,1,5,7,5,0,0,0,1,0,12,12,34,,,,,,,,,,,,,,,,,,,,,,,,,,,,,,,160.4237049,160.4237049,160.4237049,160.4237049,160.4237049,0.0048415,160.4237049,TRUE,-0.098148148,-0.4,1,0,0,ansTwo,,,,,,,,,,,,,,,,,3,2022-10-29_20h13.44.058,musicalMathTest,2022.2.4,60.00024003
music\active\vocals\Someone Like You (90) (Chorus Vocals) by Poison Beaches.wav,someone like you,active,vocals,2,90,B,add,61,59,120,123,125,128,0,0,0,1,0,13,13,12,,,,,,,,,,,,,,,,,,,,,,,,,,,,,,,162.9572133,162.9572133,162.9572133,162.9572133,162.9572133,0.00517,162.9572133,TRUE,-0.308333333,-0.402777778,1,0,0,ansOne,,,,,,,,,,,,,,,,,3,2022-10-29_20h13.44.058,musicalMathTest,2022.2.4,60.00024003
music\active\vocals\Someone Like You (90) (Chorus Vocals) by Poison Beaches.wav,someone like you,active,vocals,2,90,B,subtract,41,34,7,9,13,11,0,0,0,1,0,14,14,36,,,,,,,,,,,,,,,,,,,,,,,,,,,,,,,171.0743322,171.0743322,171.0743322,171.0743322,171.0743322,0.0052312,171.0743322,TRUE,-0.299074074,-0.387037037,1,0,0,ansOne,,,,,,,,,,,,,,,,,3,2022-10-29_20h13.44.058,musicalMathTest,2022.2.4,60.00024003
music\calm\vocals\Younger Then (90) by Allebasi.wav,younger then,calm,vocals,2,90,B,multiply,2,10,20,21,26,22,0,1,1,3,0,0,0,67,,,,,,,,,,,,,,,,,,,,,,,,185.8600022,0.0045281,0.001851852,0.025,1,0,0,198.2682678,198.2682678,198.2682678,198.2682678,198.2682678,0.0163355,198.2682678,TRUE,-0.286111111,-0.397222222,1,0,0,ansOne,180.8585039,185.8600022,,,,,,,,,,,,,,,3,2022-10-29_20h13.44.058,musicalMathTest,2022.2.4,60.00024003
music\calm\vocals\Younger Then (90) by Allebasi.wav,younger then,calm,vocals,2,90,B,subtract,48,48,0,6,8,4,0,1,1,3,0,1,1,58,,,,,,,,,,,,,,,,,,,,,,,,,,,,,,,200.5421418,200.5421418,200.5421418,200.5421418,200.5421418,0.0056565,200.5421418,TRUE,0.093518519,-0.408333333,1,0,0,ansThree,,,,,,,,,,,,,,,,,3,2022-10-29_20h13.44.058,musicalMathTest,2022.2.4,60.00024003
music\calm\vocals\Younger Then (90) by Allebasi.wav,younger then,calm,vocals,2,90,B,subtract,48,43,5,7,10,14,0,1,1,3,0,2,2,46,,,,,,,,,,,,,,,,,,,,,,,,,,,,,,,202.2589304,202.2589304,202.2589304,202.2589304,202.2589304,0.0052885,202.2589304,TRUE,-0.101851852,-0.403703704,1,0,0,ansTwo,,,,,,,,,,,,,,,,,3,2022-10-29_20h13.44.058,musicalMathTest,2022.2.4,60.00024003
music\calm\vocals\Younger Then (90) by Allebasi.wav,younger then,calm,vocals,2,90,B,multiply,12,10,120,124,125,126,0,1,1,3,0,3,3,90,,,,,,,,,,,,,,,,,,,,,,,,,,,,,,,212.0595908,212.0595908,212.0595908,212.0595908,212.0595908,0.0073317,212.0595908,TRUE,-0.098148148,-0.399074074,1,0,0,ansTwo,,,,,,,,,,,,,,,,,3,2022-10-29_20h13.44.058,musicalMathTest,2022.2.4,60.00024003
music\calm\vocals\Younger Then (90) by Allebasi.wav,younger then,calm,vocals,2,90,B,multiply,10,2,20,25,30,25,0,1,1,3,0,4,4,79,,,,,,,,,,,,,,,,,,,,,,,,,,,,,,,214.9931113,214.9931113,214.9931113,214.9931113,214.9931113,0.0054824,214.9931113,TRUE,-0.106481481,-0.412962963,1,0,0,ansTwo,,,,,,,,,,,,,,,,,3,2022-10-29_20h13.44.058,musicalMathTest,2022.2.4,60.00024003
music\calm\vocals\Younger Then (90) by Allebasi.wav,younger then,calm,vocals,2,90,B,multiply,10,18,180,186,185,187,0,1,1,3,0,5,5,104,,,,,,,,,,,,,,,,,,,,,,,,,,,,,,,216.5932439,216.5932439,216.5932439,216.5932439,216.5932439,0.0054488,216.5932439,TRUE,-0.299074074,-0.388888889,1,0,0,ansOne,,,,,,,,,,,,,,,,,3,2022-10-29_20h13.44.058,musicalMathTest,2022.2.4,60.00024003
music\calm\vocals\Younger Then (90) by Allebasi.wav,younger then,calm,vocals,2,90,B,multiply,12,10,120,125,127,121,0,1,1,3,0,6,6,106,,,,,,,,,,,,,,,,,,,,,,,,,,,,,,,219.8267936,219.8267936,219.8267936,219.8267936,219.8267936,0.0052688,219.8267936,TRUE,-0.299074074,-0.4,1,0,0,ansOne,,,,,,,,,,,,,,,,,3,2022-10-29_20h13.44.058,musicalMathTest,2022.2.4,60.00024003
music\calm\vocals\Younger Then (90) by Allebasi.wav,younger then,calm,vocals,2,90,B,multiply,12,5,60,67,62,64,0,1,1,3,0,7,7,82,,,,,,,,,,,,,,,,,,,,,,,,,,,,,,,221.6602885,221.6602885,221.6602885,221.6602885,221.6602885,0.0055039,221.6602885,TRUE,-0.309259259,-0.406481481,1,0,0,ansOne,,,,,,,,,,,,,,,,,3,2022-10-29_20h13.44.058,musicalMathTest,2022.2.4,60.00024003
music\calm\vocals\Younger Then (90) by Allebasi.wav,younger then,calm,vocals,2,90,B,add,48,43,91,93,92,96,0,1,1,3,0,8,8,8,,,,,,,,,,,,,,,,,,,,,,,,,,,,,,,231.5109287,231.5109287,231.5109287,231.5109287,231.5109287,0.0052906,231.5109287,TRUE,-0.100925926,-0.389814815,1,0,0,ansTwo,,,,,,,,,,,,,,,,,3,2022-10-29_20h13.44.058,musicalMathTest,2022.2.4,60.00024003
music\calm\vocals\Younger Then (90) by Allebasi.wav,younger then,calm,vocals,2,90,B,add,50,50,100,101,110,106,0,1,1,3,0,9,9,3,,,,,,,,,,,,,,,,,,,,,,,,,,,,,,,242.5127603,242.5127603,242.5127603,242.5127603,242.5127603,0.005406,242.5127603,TRUE,-0.284259259,-0.407407407,1,0,0,ansOne,,,,,,,,,,,,,,,,,3,2022-10-29_20h13.44.058,musicalMathTest,2022.2.4,60.00024003
music\calm\vocals\Younger Then (90) by Allebasi.wav,younger then,calm,vocals,2,90,B,subtract,50,28,22,29,31,30,0,1,1,3,0,10,10,53,,,,,,,,,,,,,,,,,,,,,,,,,,,,,,,243.9128305,243.9128305,243.9128305,243.9128305,243.9128305,0.0052418,243.9128305,TRUE,-0.281481481,-0.408333333,1,0,0,ansOne,,,,,,,,,,,,,,,,,3,2022-10-29_20h13.44.058,musicalMathTest,2022.2.4,60.00024003
music\calm\vocals\Younger Then (90) by Allebasi.wav,younger then,calm,vocals,2,90,B,subtract,26,25,1,7,9,7,0,1,1,3,0,11,11,48,,,,,,,,,,,,,,,,,,,,,,,,,,,,,,,252.1134348,252.1134348,252.1134348,252.1134348,252.1134348,0.0050912,252.1134348,TRUE,-0.303703704,-0.401851852,1,0,0,ansOne,,,,,,,,,,,,,,,,,3,2022-10-29_20h13.44.058,musicalMathTest,2022.2.4,60.00024003
music\calm\vocals\Younger Then (90) by Allebasi.wav,younger then,calm,vocals,2,90,B,subtract,54,49,5,12,7,6,0,1,1,3,0,12,12,31,,,,,,,,,,,,,,,,,,,,,,,,,,,,,,,254.3802504,254.3802504,254.3802504,254.3802504,254.3802504,0.0053786,254.3802504,TRUE,0.102777778,-0.409259259,1,0,0,ansThree,,,,,,,,,,,,,,,,,3,2022-10-29_20h13.44.058,musicalMathTest,2022.2.4,60.00024003
music\calm\instrumentals\You and Me (90) (Instrumental) by Bridge City Revival.wav,you and me,calm,instrumental,2,90,B,multiply,6,10,60,68,63,67,0,2,2,2,0,0,0,91,,,,,,,,,,,,,,,,,,,,,,,,330.351964,0.0039106,0.019444444,-0.003703704,1,0,0,331.5021219,331.5021219,331.5021219,331.5021219,331.5021219,0.0186856,331.5021219,TRUE,-0.098148148,-0.409259259,1,0,0,ansTwo,325.351812,330.351964,,,,,,,,,,,,,,,3,2022-10-29_20h13.44.058,musicalMathTest,2022.2.4,60.00024003
music\calm\instrumentals\You and Me (90) (Instrumental) by Bridge City Revival.wav,you and me,calm,instrumental,2,90,B,subtract,53,26,27,31,29,34,0,2,2,2,0,1,1,61,,,,,,,,,,,,,,,,,,,,,,,,,,,,,,,333.0023589,333.0023589,333.0023589,333.0023589,333.0023589,0.005304,333.0023589,TRUE,-0.101851852,-0.398148148,1,0,0,ansTwo,,,,,,,,,,,,,,,,,3,2022-10-29_20h13.44.058,musicalMathTest,2022.2.4,60.00024003
music\calm\instrumentals\You and Me (90) (Instrumental) by Bridge City Revival.wav,you and me,calm,instrumental,2,90,B,add,46,44,90,95,100,91,0,2,2,2,0,2,2,8,,,,,,,,,,,,,,,,,,,,,,,,,,,,,,,351.3869367,351.3869367,351.3869367,351.3869367,351.3869367,0.0063447,351.3869367,TRUE,-0.085185185,-0.412037037,1,0,0,ansTwo,,,,,,,,,,,,,,,,,3,2022-10-29_20h13.44.058,musicalMathTest,2022.2.4,60.00024003
music\calm\instrumentals\You and Me (90) (Instrumental) by Bridge City Revival.wav,you and me,calm,instrumental,2,90,B,add,63,58,121,127,129,133,0,2,2,2,0,3,3,10,,,,,,,,,,,,,,,,,,,,,,,,,,,,,,,359.3708631,359.3708631,359.3708631,359.3708631,359.3708631,0.0056119,359.3708631,TRUE,0.10462963,-0.4,1,0,0,ansThree,,,,,,,,,,,,,,,,,3,2022-10-29_20h13.44.058,musicalMathTest,2022.2.4,60.00024003
music\calm\instrumentals\You and Me (90) (Instrumental) by Bridge City Revival.wav,you and me,calm,instrumental,2,90,B,multiply,10,11,110,115,118,115,0,2,2,2,0,4,4,97,,,,,,,,,,,,,,,,,,,,,,,,,,,,,,,383.3059081,383.3059081,383.3059081,383.3059081,383.3059081,0.0054145,383.3059081,TRUE,-0.30462963,-0.403703704,1,0,0,ansOne,,,,,,,,,,,,,,,,,3,2022-10-29_20h13.44.058,musicalMathTest,2022.2.4,60.00024003
music\calm\instrumentals\You and Me (90) (Instrumental) by Bridge City Revival.wav,you and me,calm,instrumental,2,90,B,multiply,2,14,28,29,31,30,0,2,2,2,0,5,5,86,,,,,,,,,,,,,,,,,,,,,,,,,,,,,,,385.5728215,385.5728215,385.5728215,385.5728215,385.5728215,0.0051793,385.5728215,TRUE,-0.298148148,-0.39537037,1,0,0,ansOne,,,,,,,,,,,,,,,,,3,2022-10-29_20h13.44.058,musicalMathTest,2022.2.4,60.00024003
music\calm\instrumentals\You and Me (90) (Instrumental) by Bridge City Revival.wav,you and me,calm,instrumental,2,90,B,subtract,54,13,41,49,42,45,0,2,2,2,0,6,6,50,,,,,,,,,,,,,,,,,,,,,,,,,,,,,,,388.0896638,388.0896638,388.0896638,388.0896638,388.0896638,0.0053171,388.0896638,TRUE,-0.289814815,-0.392592593,1,0,0,ansOne,,,,,,,,,,,,,,,,,3,2022-10-29_20h13.44.058,musicalMathTest,2022.2.4,60.00024003
music\calm\instrumentals\You and Me (90) (Instrumental) by Bridge City Revival.wav,you and me,calm,instrumental,2,90,B,multiply,14,10,140,147,141,150,0,2,2,2,0,7,7,106,,,,,,,,,,,,,,,,,,,,,,,,,,,,,,,398.6403153,398.6403153,398.6403153,398.6403153,398.6403153,0.0054542,398.6403153,TRUE,0.099074074,-0.414814815,1,0,0,ansThree,,,,,,,,,,,,,,,,,3,2022-10-29_20h13.44.058,musicalMathTest,2022.2.4,60.00024003
music\calm\instrumentals\You and Me (90) (Instrumental) by Bridge City Revival.wav,you and me,calm,instrumental,2,90,B,add,44,26,70,77,79,78,0,2,2,2,0,8,8,18,,,,,,,,,,,,,,,,,,,,,,,,,,,,,,,400.5236921,400.5236921,400.5236921,400.5236921,400.5236921,0.0052949,400.5236921,TRUE,-0.09537037,-0.411111111,1,0,0,ansTwo,,,,,,,,,,,,,,,,,3,2022-10-29_20h13.44.058,musicalMathTest,2022.2.4,60.00024003
music\active\instrumentals\Soda Pop (90) (Instrumental) by Stony Pony.wav,soda pop,active,instrumental,2,90,B,subtract,30,29,1,5,7,5,0,4,4,0,0,0,0,49,,,,,,,,,,,,,,,,,,,,,,,,529.7991181,0.0037593,0.103703704,0.063888889,1,0,0,530.6492278,530.6492278,530.6492278,530.6492278,530.6492278,0.0160956,530.6492278,TRUE,-0.099074074,-0.388888889,1,0,0,ansTwo,524.799139,529.7991181,,,,,,,,,,,,,,,3,2022-10-29_20h13.44.058,musicalMathTest,2022.2.4,60.00024003
music\active\instrumentals\Soda Pop (90) (Instrumental) by Stony Pony.wav,soda pop,active,instrumental,2,90,B,add,48,45,93,103,98,94,0,4,4,0,0,1,1,7,,,,,,,,,,,,,,,,,,,,,,,,,,,,,,,536.7999236,536.7999236,536.7999236,536.7999236,536.7999236,0.0052992,536.7999236,TRUE,0.087962963,-0.401851852,1,0,0,ansThree,,,,,,,,,,,,,,,,,3,2022-10-29_20h13.44.058,musicalMathTest,2022.2.4,60.00024003
music\active\instrumentals\Soda Pop (90) (Instrumental) by Stony Pony.wav,soda pop,active,instrumental,2,90,B,multiply,9,5,45,49,46,48,0,4,4,0,0,2,2,99,,,,,,,,,,,,,,,,,,,,,,,,,,,,,,,546.350416,546.350416,546.350416,546.350416,546.350416,0.0058384,546.350416,TRUE,-0.283333333,-0.39537037,1,0,0,ansOne,,,,,,,,,,,,,,,,,3,2022-10-29_20h13.44.058,musicalMathTest,2022.2.4,60.00024003
music\active\instrumentals\Soda Pop (90) (Instrumental) by Stony Pony.wav,soda pop,active,instrumental,2,90,B,multiply,10,9,90,98,94,97,0,4,4,0,0,3,3,63,,,,,,,,,,,,,,,,,,,,,,,,,,,,,,,559.5348087,559.5348087,559.5348087,559.5348087,559.5348087,0.0050239,559.5348087,TRUE,-0.115740741,-0.408333333,1,0,0,ansTwo,,,,,,,,,,,,,,,,,3,2022-10-29_20h13.44.058,musicalMathTest,2022.2.4,60.00024003
music\active\instrumentals\Soda Pop (90) (Instrumental) by Stony Pony.wav,soda pop,active,instrumental,2,90,B,multiply,5,2,10,11,18,15,0,4,4,0,0,4,4,116,,,,,,,,,,,,,,,,,,,,,,,,,,,,,,,560.9847524,560.9847524,560.9847524,560.9847524,560.9847524,0.0051808,560.9847524,TRUE,-0.082407407,-0.402777778,1,0,0,ansTwo,,,,,,,,,,,,,,,,,3,2022-10-29_20h13.44.058,musicalMathTest,2022.2.4,60.00024003
music\active\instrumentals\Soda Pop (90) (Instrumental) by Stony Pony.wav,soda pop,active,instrumental,2,90,B,multiply,10,8,80,90,92,83,0,4,4,0,0,5,5,94,,,,,,,,,,,,,,,,,,,,,,,,,,,,,,,562.7516081,562.7516081,562.7516081,562.7516081,562.7516081,0.0050562,562.7516081,TRUE,0.090740741,-0.392592593,1,0,0,ansThree,,,,,,,,,,,,,,,,,3,2022-10-29_20h13.44.058,musicalMathTest,2022.2.4,60.00024003
music\active\instrumentals\Soda Pop (90) (Instrumental) by Stony Pony.wav,soda pop,active,instrumental,2,90,B,add,57,52,109,117,113,117,0,4,4,0,0,6,6,11,,,,,,,,,,,,,,,,,,,,,,,,,,,,,,,564.5016905,564.5016905,564.5016905,564.5016905,564.5016905,0.0057939,564.5016905,TRUE,0.116666667,-0.396296296,1,0,0,ansThree,,,,,,,,,,,,,,,,,3,2022-10-29_20h13.44.058,musicalMathTest,2022.2.4,60.00024003
music\active\instrumentals\Soda Pop (90) (Instrumental) by Stony Pony.wav,soda pop,active,instrumental,2,90,B,multiply,10,9,90,93,91,93,0,4,4,0,0,7,7,79,,,,,,,,,,,,,,,,,,,,,,,,,,,,,,,569.9854066,569.9854066,569.9854066,569.9854066,569.9854066,0.0051073,569.9854066,TRUE,0.099074074,-0.411111111,1,0,0,ansThree,,,,,,,,,,,,,,,,,3,2022-10-29_20h13.44.058,musicalMathTest,2022.2.4,60.00024003
music\active\instrumentals\Soda Pop (90) (Instrumental) by Stony Pony.wav,soda pop,active,instrumental,2,90,B,add,52,24,76,78,83,78,0,4,4,0,0,8,8,27,,,,,,,,,,,,,,,,,,,,,,,,,,,,,,,571.3521689,571.3521689,571.3521689,571.3521689,571.3521689,0.0053428,571.3521689,TRUE,-0.083333333,-0.4,1,0,0,ansTwo,,,,,,,,,,,,,,,,,3,2022-10-29_20h13.44.058,musicalMathTest,2022.2.4,60.00024003
music\active\instrumentals\Soda Pop (90) (Instrumental) by Stony Pony.wav,soda pop,active,instrumental,2,90,B,subtract,38,35,3,10,6,10,0,4,4,0,0,9,9,43,,,,,,,,,,,,,,,,,,,,,,,,,,,,,,,582.1197048,582.1197048,582.1197048,582.1197048,582.1197048,0.0050366,582.1197048,TRUE,-0.308333333,-0.402777778,1,0,0,ansOne,,,,,,,,,,,,,,,,,3,2022-10-29_20h13.44.058,musicalMathTest,2022.2.4,60.00024003
music\active\instrumentals\Soda Pop (90) (Instrumental) by Stony Pony.wav,soda pop,active,instrumental,2,90,B,multiply,5,8,40,44,46,50,0,4,4,0,0,10,10,70,,,,,,,,,,,,,,,,,,,,,,,,,,,,,,,587.9867561,587.9867561,587.9867561,587.9867561,587.9867561,0.0056027,587.9867561,FALSE,0.307407407,-0.414814815,1,0,0,ansFour,,,,,,,,,,,,,,,,,3,2022-10-29_20h13.44.058,musicalMathTest,2022.2.4,60.00024003
music\active\instrumentals\Soda Pop (90) (Instrumental) by Stony Pony.wav,soda pop,active,instrumental,2,90,B,add,20,17,37,41,39,43,0,4,4,0,0,11,11,21,,,,,,,,,,,,,,,,,,,,,,,,,,,,,,,605.3212871,605.3212871,605.3212871,605.3212871,605.3212871,0.0052919,605.3212871,TRUE,0.100925926,-0.417592593,1,0,0,ansThree,,,,,,,,,,,,,,,,,3,2022-10-29_20h13.44.058,musicalMathTest,2022.2.4,60.00024003
music\active\instrumentals\Soda Pop (90) (Instrumental) by Stony Pony.wav,soda pop,active,instrumental,2,90,B,multiply,16,2,32,34,36,38,0,4,4,0,0,12,12,117,,,,,,,,,,,,,,,,,,,,,,,,,,,,,,,606.8381178,606.8381178,606.8381178,606.8381178,606.8381178,0.0051487,606.8381178,TRUE,-0.291666667,-0.401851852,1,0,0,ansOne,,,,,,,,,,,,,,,,,3,2022-10-29_20h13.44.058,musicalMathTest,2022.2.4,60.00024003
music\active\instrumentals\Soda Pop (90) (Instrumental) by Stony Pony.wav,soda pop,active,instrumental,2,90,B,multiply,2,8,16,17,24,20,0,4,4,0,0,13,13,86,,,,,,,,,,,,,,,,,,,,,,,,,,,,,,,611.5217211,611.5217211,611.5217211,611.5217211,611.5217211,0.0050154,611.5217211,TRUE,-0.1,-0.402777778,1,0,0,ansTwo,,,,,,,,,,,,,,,,,3,2022-10-29_20h13.44.058,musicalMathTest,2022.2.4,60.00024003
music\active\instrumentals\Soda Pop (90) (Instrumental) by Stony Pony.wav,soda pop,active,instrumental,2,90,B,multiply,9,10,90,100,97,92,0,4,4,0,0,14,14,67,,,,,,,,,,,,,,,,,,,,,,,,,,,,,,,613.6885708,613.6885708,613.6885708,613.6885708,613.6885708,0.0060266,613.6885708,TRUE,-0.101851852,-0.397222222,1,0,0,ansTwo,,,,,,,,,,,,,,,,,3,2022-10-29_20h13.44.058,musicalMathTest,2022.2.4,60.00024003
music\active\instrumentals\Soda Pop (90) (Instrumental) by Stony Pony.wav,soda pop,active,instrumental,2,90,B,subtract,52,17,35,43,41,38,0,4,4,0,0,15,15,48,,,,,,,,,,,,,,,,,,,,,,,,,,,,,,,615.7552656,615.7552656,615.7552656,615.7552656,615.7552656,0.0051595,615.7552656,TRUE,-0.3,-0.400925926,1,0,0,ansOne,,,,,,,,,,,,,,,,,3,2022-10-29_20h13.44.058,musicalMathTest,2022.2.4,60.00024003
music\calm\instrumentals\Brand New Feelings (90) (Instrumental) by Land of Legs.wav,brand new feelings,calm,instrumental,3,90,B,add,57,52,109,116,115,110,0,0,0,1,0,0,0,14,,,,,,,,,,,,,,,,,,,,,,,,23.0823387,0.0334364,0.381481481,-0.019444444,1,0,0,24.5488799,24.5488799,24.5488799,24.5488799,24.5488799,0.0360571,24.5488799,TRUE,-0.103703704,-0.403703704,1,0,0,ansTwo,,,,,,,,,,,,,,,,,4,2022-10-29_20h17.33.188,musicalMathTest,2022.2.4,60.00963755
music\calm\instrumentals\Brand New Feelings (90) (Instrumental) by Land of Legs.wav,brand new feelings,calm,instrumental,3,90,B,multiply,9,2,18,19,21,24,0,0,0,1,0,1,1,115,,,,,,,,,,,,,,,,,,,,,,,,,,,,,,,32.7823998,32.7823998,32.7823998,32.7823998,32.7823998,0.0084503,32.7823998,TRUE,-0.282407407,-0.403703704,1,0,0,ansOne,,,,,,,,,,,,,,,,,4,2022-10-29_20h17.33.188,musicalMathTest,2022.2.4,60.00963755
music\calm\instrumentals\Brand New Feelings (90) (Instrumental) by Land of Legs.wav,brand new feelings,calm,instrumental,3,90,B,multiply,10,9,90,97,94,97,0,0,0,1,0,2,2,95,,,,,,,,,,,,,,,,,,,,,,,,,,,,,,,36.8324245,36.8324245,36.8324245,36.8324245,36.8324245,0.0062743,36.8324245,TRUE,0.099074074,-0.403703704,1,0,0,ansThree,,,,,,,,,,,,,,,,,4,2022-10-29_20h17.33.188,musicalMathTest,2022.2.4,60.00963755
music\calm\instrumentals\Brand New Feelings (90) (Instrumental) by Land of Legs.wav,brand new feelings,calm,instrumental,3,90,B,multiply,10,5,50,53,52,56,0,0,0,1,0,3,3,96,,,,,,,,,,,,,,,,,,,,,,,,,,,,,,,39.1324412,39.1324412,39.1324412,39.1324412,39.1324412,0.007053,39.1324412,TRUE,0.114814815,-0.399074074,1,0,0,ansThree,,,,,,,,,,,,,,,,,4,2022-10-29_20h17.33.188,musicalMathTest,2022.2.4,60.00963755
music\calm\instrumentals\Brand New Feelings (90) (Instrumental) by Land of Legs.wav,brand new feelings,calm,instrumental,3,90,B,add,57,52,109,117,113,117,0,0,0,1,0,4,4,11,,,,,,,,,,,,,,,,,,,,,,,,,,,,,,,40.4658355,40.4658355,40.4658355,40.4658355,40.4658355,0.006682,40.4658355,TRUE,-0.097222222,-0.398148148,1,0,0,ansTwo,,,,,,,,,,,,,,,,,4,2022-10-29_20h17.33.188,musicalMathTest,2022.2.4,60.00963755
music\calm\instrumentals\Brand New Feelings (90) (Instrumental) by Land of Legs.wav,brand new feelings,calm,instrumental,3,90,B,subtract,52,17,35,43,41,38,0,0,0,1,0,5,5,48,,,,,,,,,,,,,,,,,,,,,,,,,,,,,,,43.7492226,43.7492226,43.7492226,43.7492226,43.7492226,0.0070195,43.7492226,TRUE,0.106481481,-0.4,1,0,0,ansThree,,,,,,,,,,,,,,,,,4,2022-10-29_20h17.33.188,musicalMathTest,2022.2.4,60.00963755
music\calm\instrumentals\Brand New Feelings (90) (Instrumental) by Land of Legs.wav,brand new feelings,calm,instrumental,3,90,B,multiply,2,16,32,42,34,42,0,0,0,1,0,6,6,89,,,,,,,,,,,,,,,,,,,,,,,,,,,,,,,62.7996691,62.7996691,62.7996691,62.7996691,62.7996691,0.0062757,62.7996691,TRUE,-0.107407407,-0.403703704,1,0,0,ansTwo,,,,,,,,,,,,,,,,,4,2022-10-29_20h17.33.188,musicalMathTest,2022.2.4,60.00963755
music\calm\instrumentals\Brand New Feelings (90) (Instrumental) by Land of Legs.wav,brand new feelings,calm,instrumental,3,90,B,add,20,17,37,41,39,43,0,0,0,1,0,7,7,21,,,,,,,,,,,,,,,,,,,,,,,,,,,,,,,70.4498095,70.4498095,70.4498095,70.4498095,70.4498095,0.0061144,70.4498095,TRUE,-0.097222222,-0.396296296,1,0,0,ansTwo,,,,,,,,,,,,,,,,,4,2022-10-29_20h17.33.188,musicalMathTest,2022.2.4,60.00963755
music\calm\instrumentals\Brand New Feelings (90) (Instrumental) by Land of Legs.wav,brand new feelings,calm,instrumental,3,90,B,multiply,10,8,80,90,85,86,0,0,0,1,0,8,8,102,,,,,,,,,,,,,,,,,,,,,,,,,,,,,,,73.4832129,73.4832129,73.4832129,73.4832129,73.4832129,0.0062751,73.4832129,TRUE,-0.313888889,-0.39537037,1,0,0,ansOne,,,,,,,,,,,,,,,,,4,2022-10-29_20h17.33.188,musicalMathTest,2022.2.4,60.00963755
music\calm\instrumentals\Brand New Feelings (90) (Instrumental) by Land of Legs.wav,brand new feelings,calm,instrumental,3,90,B,multiply,9,10,90,100,97,92,0,0,0,1,0,9,9,67,,,,,,,,,,,,,,,,,,,,,,,,,,,,,,,77.4499222,77.4499222,77.4499222,77.4499222,77.4499222,0.0062092,77.4499222,TRUE,-0.089814815,-0.391666667,1,0,0,ansTwo,,,,,,,,,,,,,,,,,4,2022-10-29_20h17.33.188,musicalMathTest,2022.2.4,60.00963755
music\calm\instrumentals\Brand New Feelings (90) (Instrumental) by Land of Legs.wav,brand new feelings,calm,instrumental,3,90,B,add,30,29,59,67,62,66,0,0,0,1,0,10,10,18,,,,,,,,,,,,,,,,,,,,,,,,,,,,,,,79.0833176,79.0833176,79.0833176,79.0833176,79.0833176,0.0063861,79.0833176,TRUE,-0.296296296,-0.398148148,1,0,0,ansOne,,,,,,,,,,,,,,,,,4,2022-10-29_20h17.33.188,musicalMathTest,2022.2.4,60.00963755
music\calm\instrumentals\Brand New Feelings (90) (Instrumental) by Land of Legs.wav,brand new feelings,calm,instrumental,3,90,B,subtract,49,45,4,8,10,7,0,0,0,1,0,11,11,44,,,,,,,,,,,,,,,,,,,,,,,,,,,,,,,82.7667795,82.7667795,82.7667795,82.7667795,82.7667795,0.0061044,82.7667795,TRUE,-0.300925926,-0.40462963,1,0,0,ansOne,,,,,,,,,,,,,,,,,4,2022-10-29_20h17.33.188,musicalMathTest,2022.2.4,60.00963755
music\calm\instrumentals\Brand New Feelings (90) (Instrumental) by Land of Legs.wav,brand new feelings,calm,instrumental,3,90,B,multiply,16,10,160,170,164,170,0,0,0,1,0,12,12,77,,,,,,,,,,,,,,,,,,,,,,,,,,,,,,,104.9171991,104.9171991,104.9171991,104.9171991,104.9171991,0.0068514,104.9171991,TRUE,-0.113888889,-0.401851852,1,0,0,ansTwo,,,,,,,,,,,,,,,,,4,2022-10-29_20h17.33.188,musicalMathTest,2022.2.4,60.00963755
music\calm\instrumentals\Brand New Feelings (90) (Instrumental) by Land of Legs.wav,brand new feelings,calm,instrumental,3,90,B,multiply,5,5,25,31,30,28,0,0,0,1,0,13,13,72,,,,,,,,,,,,,,,,,,,,,,,,,,,,,,,109.4506387,109.4506387,109.4506387,109.4506387,109.4506387,0.0061314,109.4506387,TRUE,-0.292592593,-0.403703704,1,0,0,ansOne,,,,,,,,,,,,,,,,,4,2022-10-29_20h17.33.188,musicalMathTest,2022.2.4,60.00963755
music\silence.wav,silent,silent,silent,3,90,B,subtract,56,54,2,8,5,9,0,1,1,4,0,0,0,34,,,,,,,,,,,,,,,,,,,,,,,,121.7008965,0.0048875,0.369444444,-0.037037037,1,0,0,124.5509298,124.5509298,124.5509298,124.5509298,124.5509298,0.0165721,124.5509298,TRUE,-0.294444444,-0.397222222,1,0,0,ansOne,116.7007851,121.7008965,,,,,,,,,,,,,,,4,2022-10-29_20h17.33.188,musicalMathTest,2022.2.4,60.00963755
music\silence.wav,silent,silent,silent,3,90,B,multiply,14,10,140,146,141,143,0,1,1,4,0,1,1,74,,,,,,,,,,,,,,,,,,,,,,,,,,,,,,,127.7509803,127.7509803,127.7509803,127.7509803,127.7509803,0.0062798,127.7509803,TRUE,-0.291666667,-0.400925926,1,0,0,ansOne,,,,,,,,,,,,,,,,,4,2022-10-29_20h17.33.188,musicalMathTest,2022.2.4,60.00963755
music\silence.wav,silent,silent,silent,3,90,B,multiply,10,6,60,66,70,67,0,1,1,4,0,2,2,79,,,,,,,,,,,,,,,,,,,,,,,,,,,,,,,137.3178458,137.3178458,137.3178458,137.3178458,137.3178458,0.0063348,137.3178458,TRUE,0.101851852,-0.39537037,1,0,0,ansThree,,,,,,,,,,,,,,,,,4,2022-10-29_20h17.33.188,musicalMathTest,2022.2.4,60.00963755
music\silence.wav,silent,silent,silent,3,90,B,multiply,14,10,140,144,146,143,0,1,1,4,0,3,3,66,,,,,,,,,,,,,,,,,,,,,,,,,,,,,,,139.0512549,139.0512549,139.0512549,139.0512549,139.0512549,0.0066769,139.0512549,TRUE,-0.116666667,-0.396296296,1,0,0,ansTwo,,,,,,,,,,,,,,,,,4,2022-10-29_20h17.33.188,musicalMathTest,2022.2.4,60.00963755
music\silence.wav,silent,silent,silent,3,90,B,add,58,11,69,73,79,83,0,1,1,4,0,4,4,29,,,,,,,,,,,,,,,,,,,,,,,,,,,,,,,140.8846214,140.8846214,140.8846214,140.8846214,140.8846214,0.0063946,140.8846214,TRUE,-0.105555556,-0.40462963,1,0,0,ansTwo,,,,,,,,,,,,,,,,,4,2022-10-29_20h17.33.188,musicalMathTest,2022.2.4,60.00963755
music\silence.wav,silent,silent,silent,3,90,B,multiply,10,19,190,195,191,195,0,1,1,4,0,5,5,104,,,,,,,,,,,,,,,,,,,,,,,,,,,,,,,144.7347345,144.7347345,144.7347345,144.7347345,144.7347345,0.006228,144.7347345,TRUE,0.092592593,-0.402777778,1,0,0,ansThree,,,,,,,,,,,,,,,,,4,2022-10-29_20h17.33.188,musicalMathTest,2022.2.4,60.00963755
music\silence.wav,silent,silent,silent,3,90,B,subtract,53,13,40,45,46,48,0,1,1,4,0,6,6,58,,,,,,,,,,,,,,,,,,,,,,,,,,,,,,,147.5514295,147.5514295,147.5514295,147.5514295,147.5514295,0.0064415,147.5514295,TRUE,0.098148148,-0.396296296,1,0,0,ansThree,,,,,,,,,,,,,,,,,4,2022-10-29_20h17.33.188,musicalMathTest,2022.2.4,60.00963755
music\silence.wav,silent,silent,silent,3,90,B,multiply,10,19,190,197,199,191,0,1,1,4,0,7,7,80,,,,,,,,,,,,,,,,,,,,,,,,,,,,,,,152.951538,152.951538,152.951538,152.951538,152.951538,0.0062545,152.951538,TRUE,-0.092592593,-0.400925926,1,0,0,ansTwo,,,,,,,,,,,,,,,,,4,2022-10-29_20h17.33.188,musicalMathTest,2022.2.4,60.00963755
music\silence.wav,silent,silent,silent,3,90,B,add,46,44,90,95,100,91,0,1,1,4,0,8,8,8,,,,,,,,,,,,,,,,,,,,,,,,,,,,,,,154.9515785,154.9515785,154.9515785,154.9515785,154.9515785,0.0063698,154.9515785,TRUE,-0.086111111,-0.388888889,1,0,0,ansTwo,,,,,,,,,,,,,,,,,4,2022-10-29_20h17.33.188,musicalMathTest,2022.2.4,60.00963755
music\silence.wav,silent,silent,silent,3,90,B,subtract,58,13,45,47,49,51,0,1,1,4,0,9,9,54,,,,,,,,,,,,,,,,,,,,,,,,,,,,,,,160.1350339,160.1350339,160.1350339,160.1350339,160.1350339,0.0062966,160.1350339,TRUE,-0.089814815,-0.413888889,1,0,0,ansTwo,,,,,,,,,,,,,,,,,4,2022-10-29_20h17.33.188,musicalMathTest,2022.2.4,60.00963755
music\silence.wav,silent,silent,silent,3,90,B,multiply,14,5,70,76,77,71,0,1,1,4,0,10,10,82,,,,,,,,,,,,,,,,,,,,,,,,,,,,,,,165.785145,165.785145,165.785145,165.785145,165.785145,0.0065843,165.785145,TRUE,-0.103703704,-0.401851852,1,0,0,ansTwo,,,,,,,,,,,,,,,,,4,2022-10-29_20h17.33.188,musicalMathTest,2022.2.4,60.00963755
music\silence.wav,silent,silent,silent,3,90,B,multiply,6,10,60,68,63,67,0,1,1,4,0,11,11,91,,,,,,,,,,,,,,,,,,,,,,,,,,,,,,,175.5186893,175.5186893,175.5186893,175.5186893,175.5186893,0.0062451,175.5186893,TRUE,0.093518519,-0.405555556,1,0,0,ansThree,,,,,,,,,,,,,,,,,4,2022-10-29_20h17.33.188,musicalMathTest,2022.2.4,60.00963755
music\silence.wav,silent,silent,silent,3,90,B,add,54,54,108,111,113,117,0,1,1,4,0,12,12,12,,,,,,,,,,,,,,,,,,,,,,,,,,,,,,,180.5687885,180.5687885,180.5687885,180.5687885,180.5687885,0.0066891,180.5687885,TRUE,-0.293518519,-0.409259259,1,0,0,ansOne,,,,,,,,,,,,,,,,,4,2022-10-29_20h17.33.188,musicalMathTest,2022.2.4,60.00963755
music\silence.wav,silent,silent,silent,3,90,B,multiply,19,10,190,198,200,195,0,1,1,4,0,13,13,92,,,,,,,,,,,,,,,,,,,,,,,,,,,,,,,184.1355511,184.1355511,184.1355511,184.1355511,184.1355511,0.0063781,184.1355511,TRUE,0.097222222,-0.401851852,1,0,0,ansThree,,,,,,,,,,,,,,,,,4,2022-10-29_20h17.33.188,musicalMathTest,2022.2.4,60.00963755
music\silence.wav,silent,silent,silent,3,90,B,multiply,2,19,38,41,44,46,0,1,1,4,0,14,14,88,,,,,,,,,,,,,,,,,,,,,,,,,,,,,,,187.1355871,187.1355871,187.1355871,187.1355871,187.1355871,0.0064409,187.1355871,TRUE,-0.298148148,-0.405555556,1,0,0,ansOne,,,,,,,,,,,,,,,,,4,2022-10-29_20h17.33.188,musicalMathTest,2022.2.4,60.00963755
music\silence.wav,silent,silent,silent,3,90,B,multiply,10,14,140,143,148,143,0,1,1,4,0,15,15,94,,,,,,,,,,,,,,,,,,,,,,,,,,,,,,,195.319105,195.319105,195.319105,195.319105,195.319105,0.0064165,195.319105,TRUE,-0.288888889,-0.405555556,1,0,0,ansOne,,,,,,,,,,,,,,,,,4,2022-10-29_20h17.33.188,musicalMathTest,2022.2.4,60.00963755
music\silence.wav,silent,silent,silent,3,90,B,add,54,13,67,69,70,74,0,1,1,4,0,16,16,19,,,,,,,,,,,,,,,,,,,,,,,,,,,,,,,198.1525106,198.1525106,198.1525106,198.1525106,198.1525106,0.0063835,198.1525106,TRUE,-0.094444444,-0.408333333,1,0,0,ansTwo,,,,,,,,,,,,,,,,,4,2022-10-29_20h17.33.188,musicalMathTest,2022.2.4,60.00963755
music\silence.wav,silent,silent,silent,3,90,B,multiply,6,10,60,61,68,70,0,1,1,4,0,17,17,75,,,,,,,,,,,,,,,,,,,,,,,,,,,,,,,201.6025703,201.6025703,201.6025703,201.6025703,201.6025703,0.0061321,201.6025703,TRUE,0.084259259,-0.399074074,1,0,0,ansThree,,,,,,,,,,,,,,,,,4,2022-10-29_20h17.33.188,musicalMathTest,2022.2.4,60.00963755
music\silence.wav,silent,silent,silent,3,90,B,subtract,60,58,2,7,9,4,0,1,1,4,0,18,18,31,,,,,,,,,,,,,,,,,,,,,,,,,,,,,,,207.0360187,207.0360187,207.0360187,207.0360187,207.0360187,0.0062904,207.0360187,TRUE,-0.301851852,-0.391666667,1,0,0,ansOne,,,,,,,,,,,,,,,,,4,2022-10-29_20h17.33.188,musicalMathTest,2022.2.4,60.00963755
music\active\vocals\Believe It (90) by Ty Magenta.wav,believe it,active,vocals,3,90,B,multiply,2,15,30,31,33,35,0,4,4,0,0,0,0,87,,,,,,,,,,,,,,,,,,,,,,,,419.0904929,0.0050716,0.476851852,-0.007407407,1,0,0,421.573871,421.573871,421.573871,421.573871,421.573871,0.0827867,421.573871,TRUE,0.1,-0.39537037,1,0,0,ansThree,414.0903832,419.0904929,,,,,,,,,,,,,,,4,2022-10-29_20h17.33.188,musicalMathTest,2022.2.4,60.00963755
music\active\vocals\Believe It (90) by Ty Magenta.wav,believe it,active,vocals,3,90,B,add,23,16,39,47,43,41,0,4,4,0,0,1,1,12,,,,,,,,,,,,,,,,,,,,,,,,,,,,,,,424.0905844,424.0905844,424.0905844,424.0905844,424.0905844,0.0063664,424.0905844,TRUE,-0.30462963,-0.4,1,0,0,ansOne,,,,,,,,,,,,,,,,,4,2022-10-29_20h17.33.188,musicalMathTest,2022.2.4,60.00963755
music\active\vocals\Believe It (90) by Ty Magenta.wav,believe it,active,vocals,3,90,B,multiply,2,3,6,14,7,14,0,4,4,0,0,2,2,86,,,,,,,,,,,,,,,,,,,,,,,,,,,,,,,432.1574066,432.1574066,432.1574066,432.1574066,432.1574066,0.0060623,432.1574066,TRUE,-0.302777778,-0.400925926,1,0,0,ansOne,,,,,,,,,,,,,,,,,4,2022-10-29_20h17.33.188,musicalMathTest,2022.2.4,60.00963755
music\active\vocals\Believe It (90) by Ty Magenta.wav,believe it,active,vocals,3,90,B,subtract,26,23,3,6,7,6,0,4,4,0,0,3,3,47,,,,,,,,,,,,,,,,,,,,,,,,,,,,,,,435.2741669,435.2741669,435.2741669,435.2741669,435.2741669,0.0061646,435.2741669,TRUE,0.098148148,-0.403703704,1,0,0,ansThree,,,,,,,,,,,,,,,,,4,2022-10-29_20h17.33.188,musicalMathTest,2022.2.4,60.00963755
music\active\vocals\Believe It (90) by Ty Magenta.wav,believe it,active,vocals,3,90,B,add,41,39,80,82,87,86,0,4,4,0,0,4,4,8,,,,,,,,,,,,,,,,,,,,,,,,,,,,,,,443.6076637,443.6076637,443.6076637,443.6076637,443.6076637,0.0062007,443.6076637,TRUE,-0.099074074,-0.408333333,1,0,0,ansTwo,,,,,,,,,,,,,,,,,4,2022-10-29_20h17.33.188,musicalMathTest,2022.2.4,60.00963755
music\active\vocals\Believe It (90) by Ty Magenta.wav,believe it,active,vocals,3,90,B,multiply,10,15,150,156,158,162,0,4,4,0,0,5,5,63,,,,,,,,,,,,,,,,,,,,,,,,,,,,,,,454.2745256,454.2745256,454.2745256,454.2745256,454.2745256,0.0063854,454.2745256,TRUE,-0.097222222,-0.411111111,1,0,0,ansTwo,,,,,,,,,,,,,,,,,4,2022-10-29_20h17.33.188,musicalMathTest,2022.2.4,60.00963755
music\active\vocals\Believe It (90) by Ty Magenta.wav,believe it,active,vocals,3,90,B,add,27,23,50,57,60,53,0,4,4,0,0,6,6,28,,,,,,,,,,,,,,,,,,,,,,,,,,,,,,,458.0246335,458.0246335,458.0246335,458.0246335,458.0246335,0.0061914,458.0246335,TRUE,-0.082407407,-0.400925926,1,0,0,ansTwo,,,,,,,,,,,,,,,,,4,2022-10-29_20h17.33.188,musicalMathTest,2022.2.4,60.00963755
music\active\vocals\Believe It (90) by Ty Magenta.wav,believe it,active,vocals,3,90,B,add,37,15,52,59,56,60,0,4,4,0,0,7,7,11,,,,,,,,,,,,,,,,,,,,,,,,,,,,,,,462.4247442,462.4247442,462.4247442,462.4247442,462.4247442,0.0062426,462.4247442,TRUE,-0.107407407,-0.407407407,1,0,0,ansTwo,,,,,,,,,,,,,,,,,4,2022-10-29_20h17.33.188,musicalMathTest,2022.2.4,60.00963755
music\active\vocals\Believe It (90) by Ty Magenta.wav,believe it,active,vocals,3,90,B,multiply,5,15,75,77,85,77,0,4,4,0,0,8,8,71,,,,,,,,,,,,,,,,,,,,,,,,,,,,,,,467.741505,467.741505,467.741505,467.741505,467.741505,0.0062362,467.741505,TRUE,0.1,-0.396296296,1,0,0,ansThree,,,,,,,,,,,,,,,,,4,2022-10-29_20h17.33.188,musicalMathTest,2022.2.4,60.00963755
music\active\vocals\Believe It (90) by Ty Magenta.wav,believe it,active,vocals,3,90,B,add,16,10,26,27,33,29,0,4,4,0,0,9,9,22,,,,,,,,,,,,,,,,,,,,,,,,,,,,,,,475.1250049,475.1250049,475.1250049,475.1250049,475.1250049,0.0062298,475.1250049,TRUE,-0.097222222,-0.40462963,1,0,0,ansTwo,,,,,,,,,,,,,,,,,4,2022-10-29_20h17.33.188,musicalMathTest,2022.2.4,60.00963755
music\active\vocals\Believe It (90) by Ty Magenta.wav,believe it,active,vocals,3,90,B,add,55,16,71,74,76,74,0,4,4,0,0,10,10,9,,,,,,,,,,,,,,,,,,,,,,,,,,,,,,,479.4251112,479.4251112,479.4251112,479.4251112,479.4251112,0.0060708,479.4251112,TRUE,-0.294444444,-0.398148148,1,0,0,ansOne,,,,,,,,,,,,,,,,,4,2022-10-29_20h17.33.188,musicalMathTest,2022.2.4,60.00963755
music\active\vocals\Believe It (90) by Ty Magenta.wav,believe it,active,vocals,3,90,B,multiply,17,10,170,176,180,172,0,4,4,0,0,11,11,69,,,,,,,,,,,,,,,,,,,,,,,,,,,,,,,482.6751553,482.6751553,482.6751553,482.6751553,482.6751553,0.0064383,482.6751553,TRUE,-0.300925926,-0.39537037,1,0,0,ansOne,,,,,,,,,,,,,,,,,4,2022-10-29_20h17.33.188,musicalMathTest,2022.2.4,60.00963755
music\active\vocals\Believe It (90) by Ty Magenta.wav,believe it,active,vocals,3,90,B,add,25,23,48,49,54,58,0,4,4,0,0,12,12,20,,,,,,,,,,,,,,,,,,,,,,,,,,,,,,,485.6251986,485.6251986,485.6251986,485.6251986,485.6251986,0.0061676,485.6251986,FALSE,0.305555556,-0.409259259,1,0,0,ansFour,,,,,,,,,,,,,,,,,4,2022-10-29_20h17.33.188,musicalMathTest,2022.2.4,60.00963755
music\active\vocals\Believe It (90) by Ty Magenta.wav,believe it,active,vocals,3,90,B,subtract,41,39,2,8,4,7,0,4,4,0,0,13,13,39,,,,,,,,,,,,,,,,,,,,,,,,,,,,,,,490.8419898,490.8419898,490.8419898,490.8419898,490.8419898,0.0061383,490.8419898,TRUE,0.098148148,-0.397222222,1,0,0,ansThree,,,,,,,,,,,,,,,,,4,2022-10-29_20h17.33.188,musicalMathTest,2022.2.4,60.00963755
music\active\vocals\Believe It (90) by Ty Magenta.wav,believe it,active,vocals,3,90,B,multiply,4,10,40,45,42,48,0,4,4,0,0,14,14,108,,,,,,,,,,,,,,,,,,,,,,,,,,,,,,,494.042033,494.042033,494.042033,494.042033,494.042033,0.0059981,494.042033,TRUE,0.100925926,-0.399074074,1,0,0,ansThree,,,,,,,,,,,,,,,,,4,2022-10-29_20h17.33.188,musicalMathTest,2022.2.4,60.00963755
music\active\vocals\Believe It (90) by Ty Magenta.wav,believe it,active,vocals,3,90,B,subtract,55,55,0,4,7,8,0,4,4,0,0,15,15,52,,,,,,,,,,,,,,,,,,,,,,,,,,,,,,,495.992094,495.992094,495.992094,495.992094,495.992094,0.0062602,495.992094,TRUE,0.094444444,-0.393518519,1,0,0,ansThree,,,,,,,,,,,,,,,,,4,2022-10-29_20h17.33.188,musicalMathTest,2022.2.4,60.00963755
music\active\vocals\Believe It (90) by Ty Magenta.wav,believe it,active,vocals,3,90,B,multiply,10,3,30,37,35,40,0,4,4,0,0,16,16,62,,,,,,,,,,,,,,,,,,,,,,,,,,,,,,,499.7254969,499.7254969,499.7254969,499.7254969,499.7254969,0.0062781,499.7254969,TRUE,0.100925926,-0.400925926,1,0,0,ansThree,,,,,,,,,,,,,,,,,4,2022-10-29_20h17.33.188,musicalMathTest,2022.2.4,60.00963755
music\active\vocals\Believe It (90) by Ty Magenta.wav,believe it,active,vocals,3,90,B,multiply,4,10,40,47,43,46,0,4,4,0,0,17,17,68,,,,,,,,,,,,,,,,,,,,,,,,,,,,,,,502.025529,502.025529,502.025529,502.025529,502.025529,0.0064136,502.025529,TRUE,0.093518519,-0.39537037,1,0,0,ansThree,,,,,,,,,,,,,,,,,4,2022-10-29_20h17.33.188,musicalMathTest,2022.2.4,60.00963755
music\active\vocals\Believe It (90) by Ty Magenta.wav,believe it,active,vocals,3,90,B,multiply,5,4,20,25,28,26,0,4,4,0,0,18,18,72,,,,,,,,,,,,,,,,,,,,,,,,,,,,,,,503.5755941,503.5755941,503.5755941,503.5755941,503.5755941,0.0062938,503.5755941,TRUE,-0.103703704,-0.401851852,1,0,0,ansTwo,,,,,,,,,,,,,,,,,4,2022-10-29_20h17.33.188,musicalMathTest,2022.2.4,60.00963755
music\active\vocals\Believe It (90) by Ty Magenta.wav,believe it,active,vocals,3,90,B,multiply,10,17,170,180,177,171,0,4,4,0,0,19,19,81,,,,,,,,,,,,,,,,,,,,,,,,,,,,,,,507.6423457,507.6423457,507.6423457,507.6423457,507.6423457,0.0066229,507.6423457,TRUE,-0.096296296,-0.401851852,1,0,0,ansTwo,,,,,,,,,,,,,,,,,4,2022-10-29_20h17.33.188,musicalMathTest,2022.2.4,60.00963755