songfilename,SongName,Speed,Condition,fileblock,testdurationsec,CategoryType,NumOne,NumTwo,Correct,Incorrect1,Incorrect2,Incorrect3,musicTypeLoop.thisRepN,musicTypeLoop.thisTrialN,musicTypeLoop.thisN,musicTypeLoop.thisIndex,trialsMath.thisRepN,trialsMath.thisTrialN,trialsMath.thisN,trialsMath.thisIndex,partInfoImage.started,partinfomouse.started,partinfomouse.x,partinfomouse.y,partinfomouse.leftButton,partinfomouse.midButton,partinfomouse.rightButton,partInfoImage_2.started,partinfomouse_2.started,consentBox.started,partinfomouse_2.x,partinfomouse_2.y,partinfomouse_2.leftButton,partinfomouse_2.midButton,partinfomouse_2.rightButton,partinfomouse_2.clicked_name,partInfoImage_3.started,partinfomouse_3.started,partinfomouse_3.x,partinfomouse_3.y,partinfomouse_3.leftButton,partinfomouse_3.midButton,partinfomouse_3.rightButton,partInfoImage_4.started,partinfomouse_4.started,partinfomouse_4.x,partinfomouse_4.y,partinfomouse_4.leftButton,partinfomouse_4.midButton,partinfomouse_4.rightButton,question.started,ansOne.started,ansTwo.started,ansThree.started,ansFour.started,mouseclickResponse.started,debuginfo.started,correctClick,mouseclickResponse.x,mouseclickResponse.y,mouseclickResponse.leftButton,mouseclickResponse.midButton,mouseclickResponse.rightButton,mouseclickResponse.clicked_name,text.started,text.stopped,partInfoImage_5.started,partinfomouse_5.started,partinfomouse_5.x,partinfomouse_5.y,partinfomouse_5.leftButton,partinfomouse_5.midButton,partinfomouse_5.rightButton,partInfoImage_6.started,partinfomouse_6.started,partinfomouse_6.x,partinfomouse_6.y,partinfomouse_6.leftButton,partinfomouse_6.midButton,partinfomouse_6.rightButton,session,date,expName,psychopyVersion,frameRate,
,,,,,,,,,,,,,,,,,,,,,32.946163000000524,3.339999238960445e-05,0.16276041666666666,-0.026041666666666668,1,0,0,,,,,,,,,,,,,,,,,,,,,,,,,,,,,,,,,,,,,,,,,,,,,,,,,,,,,,2,2022-11-01_11h56.48.543,musicalMathTest,2022.2.0,60.015688101552,
,,,,,,,,,,,,,,,,,,,,,,,,,,,,35.76460009999573,4.359999729786068e-05,35.76460009999573,0.3138020833333333,-0.4583333333333333,1,0,0,consentBox,,,,,,,,,,,,,,,,,,,,,,,,,,,,,,,,,,,,,,,,,,,,,2,2022-11-01_11h56.48.543,musicalMathTest,2022.2.0,60.015688101552,
,,,,,,,,,,,,,,,,,,,,,,,,,,,,,,,,,,,,,37.42624810000416,1.9099999917671084e-05,0.3046875,0.0078125,1,0,0,,,,,,,,,,,,,,,,,,,,,,,,,,,,,,,,,,,,,,2,2022-11-01_11h56.48.543,musicalMathTest,2022.2.0,60.015688101552,
music\calm\vocals\Rose Gold (90) by Cabri x Sub Q Taneous.wav,rose gold,calm,vocals,2,90,multiply,10,18,180,183,184,187,0,0,0,8,0,0,0,80,,,,,,,,,,,,,,,,,,,,,,,,39.63416830000642,0.03708520000509452,0.125,-0.061197916666666664,1,0,0,42.67321360000642,42.67321360000642,42.67321360000642,42.67321360000642,42.67321360000642,0.07459289999678731,42.67321360000642,True,0.11067708333333333,-0.3958333333333333,1,0,0,ansThree,,,,,,,,,,,,,,,,,2,2022-11-01_11h56.48.543,musicalMathTest,2022.2.0,60.015688101552,
music\calm\vocals\Rose Gold (90) by Cabri x Sub Q Taneous.wav,rose gold,calm,vocals,2,90,subtract,22,14,8,14,9,13,0,0,0,8,0,1,1,35,,,,,,,,,,,,,,,,,,,,,,,,,,,,,,,45.03507460000401,45.03507460000401,45.03507460000401,45.03507460000401,45.03507460000401,0.015962799996486865,45.03507460000401,True,-0.3046875,-0.3997395833333333,1,0,0,ansOne,,,,,,,,,,,,,,,,,2,2022-11-01_11h56.48.543,musicalMathTest,2022.2.0,60.015688101552,
music\calm\vocals\Rose Gold (90) by Cabri x Sub Q Taneous.wav,rose gold,calm,vocals,2,90,subtract,28,28,0,3,5,3,0,0,0,8,0,2,2,61,,,,,,,,,,,,,,,,,,,,,,,,,,,,,,,47.79586610000115,47.79586610000115,47.79586610000115,47.79586610000115,47.79586610000115,0.011826700007077307,47.79586610000115,True,-0.10286458333333333,-0.4010416666666667,1,0,0,ansTwo,,,,,,,,,,,,,,,,,2,2022-11-01_11h56.48.543,musicalMathTest,2022.2.0,60.015688101552,
music\calm\vocals\Rose Gold (90) by Cabri x Sub Q Taneous.wav,rose gold,calm,vocals,2,90,multiply,2,2,4,5,10,11,0,0,0,8,0,3,3,87,,,,,,,,,,,,,,,,,,,,,,,,,,,,,,,51.69370260000869,51.69370260000869,51.69370260000869,51.69370260000869,51.69370260000869,0.009655400004703552,51.69370260000869,True,0.09114583333333333,-0.38671875,1,0,0,ansThree,,,,,,,,,,,,,,,,,2,2022-11-01_11h56.48.543,musicalMathTest,2022.2.0,60.015688101552,
music\calm\vocals\Rose Gold (90) by Cabri x Sub Q Taneous.wav,rose gold,calm,vocals,2,90,subtract,43,22,21,27,28,32,0,0,0,8,0,4,4,55,,,,,,,,,,,,,,,,,,,,,,,,,,,,,,,53.227705199999036,53.227705199999036,53.227705199999036,53.227705199999036,53.227705199999036,0.0108269000047585,53.227705199999036,True,-0.1015625,-0.3997395833333333,1,0,0,ansTwo,,,,,,,,,,,,,,,,,2,2022-11-01_11h56.48.543,musicalMathTest,2022.2.0,60.015688101552,
music\calm\vocals\Rose Gold (90) by Cabri x Sub Q Taneous.wav,rose gold,calm,vocals,2,90,add,53,50,103,105,107,111,0,0,0,8,0,5,5,9,,,,,,,,,,,,,,,,,,,,,,,,,,,,,,,55.73261249999632,55.73261249999632,55.73261249999632,55.73261249999632,55.73261249999632,0.01669469999615103,55.73261249999632,True,0.10026041666666667,-0.4205729166666667,1,0,0,ansThree,,,,,,,,,,,,,,,,,2,2022-11-01_11h56.48.543,musicalMathTest,2022.2.0,60.015688101552,
music\calm\vocals\Rose Gold (90) by Cabri x Sub Q Taneous.wav,rose gold,calm,vocals,2,90,add,53,49,102,109,107,112,0,0,0,8,0,6,6,13,,,,,,,,,,,,,,,,,,,,,,,,,,,,,,,58.09310080000432,58.09310080000432,58.09310080000432,58.09310080000432,58.09310080000432,0.011331300003803335,58.09310080000432,True,-0.27734375,-0.3958333333333333,1,0,0,ansOne,,,,,,,,,,,,,,,,,2,2022-11-01_11h56.48.543,musicalMathTest,2022.2.0,60.015688101552,
music\calm\vocals\Rose Gold (90) by Cabri x Sub Q Taneous.wav,rose gold,calm,vocals,2,90,multiply,10,18,180,187,186,184,0,0,0,8,0,7,7,64,,,,,,,,,,,,,,,,,,,,,,,,,,,,,,,60.91336079999746,60.91336079999746,60.91336079999746,60.91336079999746,60.91336079999746,0.014036499997018836,60.91336079999746,True,0.11458333333333333,-0.3880208333333333,1,0,0,ansThree,,,,,,,,,,,,,,,,,2,2022-11-01_11h56.48.543,musicalMathTest,2022.2.0,60.015688101552,
music\calm\vocals\Rose Gold (90) by Cabri x Sub Q Taneous.wav,rose gold,calm,vocals,2,90,add,28,28,56,62,61,63,0,0,0,8,0,8,8,30,,,,,,,,,,,,,,,,,,,,,,,,,,,,,,,62.5080450999958,62.5080450999958,62.5080450999958,62.5080450999958,62.5080450999958,0.009192400000756606,62.5080450999958,True,-0.11458333333333333,-0.3997395833333333,1,0,0,ansTwo,,,,,,,,,,,,,,,,,2,2022-11-01_11h56.48.543,musicalMathTest,2022.2.0,60.015688101552,
music\calm\vocals\Rose Gold (90) by Cabri x Sub Q Taneous.wav,rose gold,calm,vocals,2,90,multiply,12,10,120,124,125,126,0,0,0,8,0,9,9,90,,,,,,,,,,,,,,,,,,,,,,,,,,,,,,,65.17424000000756,65.17424000000756,65.17424000000756,65.17424000000756,65.17424000000756,0.009700299997348338,65.17424000000756,True,-0.30078125,-0.390625,1,0,0,ansOne,,,,,,,,,,,,,,,,,2,2022-11-01_11h56.48.543,musicalMathTest,2022.2.0,60.015688101552,
music\calm\vocals\Rose Gold (90) by Cabri x Sub Q Taneous.wav,rose gold,calm,vocals,2,90,multiply,10,18,180,188,190,194,0,0,0,8,0,10,10,96,,,,,,,,,,,,,,,,,,,,,,,,,,,,,,,66.6759158000059,66.6759158000059,66.6759158000059,66.6759158000059,66.6759158000059,0.011421199989854358,66.6759158000059,True,0.078125,-0.4140625,1,0,0,ansThree,,,,,,,,,,,,,,,,,2,2022-11-01_11h56.48.543,musicalMathTest,2022.2.0,60.015688101552,
music\calm\vocals\Rose Gold (90) by Cabri x Sub Q Taneous.wav,rose gold,calm,vocals,2,90,multiply,5,18,90,92,91,94,0,0,0,8,0,11,11,112,,,,,,,,,,,,,,,,,,,,,,,,,,,,,,,68.49106919999758,68.49106919999758,68.49106919999758,68.49106919999758,68.49106919999758,0.010820900002727285,68.49106919999758,True,-0.10416666666666667,-0.4049479166666667,1,0,0,ansTwo,,,,,,,,,,,,,,,,,2,2022-11-01_11h56.48.543,musicalMathTest,2022.2.0,60.015688101552,
music\calm\vocals\Rose Gold (90) by Cabri x Sub Q Taneous.wav,rose gold,calm,vocals,2,90,subtract,49,22,27,29,17,33,0,0,0,8,0,12,12,47,,,,,,,,,,,,,,,,,,,,,,,,,,,,,,,72.27508770000713,72.27508770000713,72.27508770000713,72.27508770000713,72.27508770000713,0.012631599995074794,72.27508770000713,True,0.08072916666666667,-0.3919270833333333,1,0,0,ansThree,,,,,,,,,,,,,,,,,2,2022-11-01_11h56.48.543,musicalMathTest,2022.2.0,60.015688101552,
music\calm\vocals\Rose Gold (90) by Cabri x Sub Q Taneous.wav,rose gold,calm,vocals,2,90,multiply,5,12,60,68,67,70,0,0,0,8,0,13,13,110,,,,,,,,,,,,,,,,,,,,,,,,,,,,,,,76.6889777000033,76.6889777000033,76.6889777000033,76.6889777000033,76.6889777000033,0.009899299999233335,76.6889777000033,True,0.10546875,-0.390625,1,0,0,ansThree,,,,,,,,,,,,,,,,,2,2022-11-01_11h56.48.543,musicalMathTest,2022.2.0,60.015688101552,
music\calm\vocals\Rose Gold (90) by Cabri x Sub Q Taneous.wav,rose gold,calm,vocals,2,90,multiply,10,21,210,217,218,216,0,0,0,8,0,14,14,97,,,,,,,,,,,,,,,,,,,,,,,,,,,,,,,78.5459067000047,78.5459067000047,78.5459067000047,78.5459067000047,78.5459067000047,0.013274400000227615,78.5459067000047,True,-0.09505208333333333,-0.4036458333333333,1,0,0,ansTwo,,,,,,,,,,,,,,,,,2,2022-11-01_11h56.48.543,musicalMathTest,2022.2.0,60.015688101552,
music\calm\vocals\Rose Gold (90) by Cabri x Sub Q Taneous.wav,rose gold,calm,vocals,2,90,add,50,50,100,101,102,107,0,0,0,8,0,15,15,6,,,,,,,,,,,,,,,,,,,,,,,,,,,,,,,80.310842100007,80.310842100007,80.310842100007,80.310842100007,80.310842100007,0.014989300005254336,80.310842100007,True,-0.09375,-0.4114583333333333,1,0,0,ansTwo,,,,,,,,,,,,,,,,,2,2022-11-01_11h56.48.543,musicalMathTest,2022.2.0,60.015688101552,
music\calm\vocals\Rose Gold (90) by Cabri x Sub Q Taneous.wav,rose gold,calm,vocals,2,90,subtract,43,25,18,21,25,19,0,0,0,8,0,16,16,52,,,,,,,,,,,,,,,,,,,,,,,,,,,,,,,81.58711980000953,81.58711980000953,81.58711980000953,81.58711980000953,81.58711980000953,0.009299199999077246,81.58711980000953,True,0.11067708333333333,-0.4166666666666667,1,0,0,ansThree,,,,,,,,,,,,,,,,,2,2022-11-01_11h56.48.543,musicalMathTest,2022.2.0,60.015688101552,
music\calm\vocals\Rose Gold (90) by Cabri x Sub Q Taneous.wav,rose gold,calm,vocals,2,90,multiply,5,2,10,15,20,16,0,0,0,8,0,17,17,111,,,,,,,,,,,,,,,,,,,,,,,,,,,,,,,86.97412210000039,86.97412210000039,86.97412210000039,86.97412210000039,86.97412210000039,0.011345999999321066,86.97412210000039,True,-0.2877604166666667,-0.3893229166666667,1,0,0,ansOne,,,,,,,,,,,,,,,,,2,2022-11-01_11h56.48.543,musicalMathTest,2022.2.0,60.015688101552,
music\calm\vocals\Rose Gold (90) by Cabri x Sub Q Taneous.wav,rose gold,calm,vocals,2,90,subtract,49,48,1,7,6,3,0,0,0,8,0,18,18,54,,,,,,,,,,,,,,,,,,,,,,,,,,,,,,,88.47464220000256,88.47464220000256,88.47464220000256,88.47464220000256,88.47464220000256,0.012072299999999814,88.47464220000256,True,0.10026041666666667,-0.3984375,1,0,0,ansThree,,,,,,,,,,,,,,,,,2,2022-11-01_11h56.48.543,musicalMathTest,2022.2.0,60.015688101552,
music\calm\vocals\Rose Gold (90) by Cabri x Sub Q Taneous.wav,rose gold,calm,vocals,2,90,subtract,51,49,2,5,9,3,0,0,0,8,0,19,19,41,,,,,,,,,,,,,,,,,,,,,,,,,,,,,,,91.17341950000264,91.17341950000264,91.17341950000264,91.17341950000264,91.17341950000264,0.010508900013519451,91.17341950000264,True,-0.09375,-0.3932291666666667,1,0,0,ansTwo,,,,,,,,,,,,,,,,,2,2022-11-01_11h56.48.543,musicalMathTest,2022.2.0,60.015688101552,
music\calm\vocals\Rose Gold (90) by Cabri x Sub Q Taneous.wav,rose gold,calm,vocals,2,90,add,49,48,97,105,99,101,0,0,0,8,0,20,20,23,,,,,,,,,,,,,,,,,,,,,,,,,,,,,,,93.99258540000301,93.99258540000301,93.99258540000301,93.99258540000301,93.99258540000301,0.01494490000186488,93.99258540000301,False,-0.09895833333333333,-0.3997395833333333,1,0,0,ansTwo,,,,,,,,,,,,,,,,,2,2022-11-01_11h56.48.543,musicalMathTest,2022.2.0,60.015688101552,
music\calm\vocals\Rose Gold (90) by Cabri x Sub Q Taneous.wav,rose gold,calm,vocals,2,90,add,48,43,91,93,92,96,0,0,0,8,0,21,21,8,,,,,,,,,,,,,,,,,,,,,,,,,,,,,,,96.14249450000352,96.14249450000352,96.14249450000352,96.14249450000352,96.14249450000352,0.015662400008295663,96.14249450000352,True,-0.1015625,-0.4010416666666667,1,0,0,ansTwo,,,,,,,,,,,,,,,,,2,2022-11-01_11h56.48.543,musicalMathTest,2022.2.0,60.015688101552,
music\calm\vocals\Rose Gold (90) by Cabri x Sub Q Taneous.wav,rose gold,calm,vocals,2,90,multiply,10,12,120,124,128,132,0,0,0,8,0,22,22,78,,,,,,,,,,,,,,,,,,,,,,,,,,,,,,,100.85168089999934,100.85168089999934,100.85168089999934,100.85168089999934,100.85168089999934,0.0099593999912031,100.85168089999934,True,-0.3046875,-0.3971354166666667,1,0,0,ansOne,,,,,,,,,,,,,,,,,2,2022-11-01_11h56.48.543,musicalMathTest,2022.2.0,60.015688101552,
music\calm\vocals\Rose Gold (90) by Cabri x Sub Q Taneous.wav,rose gold,calm,vocals,2,90,multiply,2,10,20,21,26,22,0,0,0,8,0,23,23,67,,,,,,,,,,,,,,,,,,,,,,,,,,,,,,,102.46888329999638,102.46888329999638,102.46888329999638,102.46888329999638,102.46888329999638,0.010781300006783567,102.46888329999638,True,0.09244791666666667,-0.3984375,1,0,0,ansThree,,,,,,,,,,,,,,,,,2,2022-11-01_11h56.48.543,musicalMathTest,2022.2.0,60.015688101552,
music\calm\vocals\Rose Gold (90) by Cabri x Sub Q Taneous.wav,rose gold,calm,vocals,2,90,add,54,49,103,109,111,106,0,0,0,8,0,24,24,7,,,,,,,,,,,,,,,,,,,,,,,,,,,,,,,103.76717990000907,103.76717990000907,103.76717990000907,103.76717990000907,103.76717990000907,0.009394000007887371,103.76717990000907,True,-0.09505208333333333,-0.3958333333333333,1,0,0,ansTwo,,,,,,,,,,,,,,,,,2,2022-11-01_11h56.48.543,musicalMathTest,2022.2.0,60.015688101552,
music\calm\vocals\Rose Gold (90) by Cabri x Sub Q Taneous.wav,rose gold,calm,vocals,2,90,multiply,2,12,24,28,31,32,0,0,0,8,0,25,25,86,,,,,,,,,,,,,,,,,,,,,,,,,,,,,,,107.31727080000564,107.31727080000564,107.31727080000564,107.31727080000564,107.31727080000564,0.009785699992789887,107.31727080000564,True,-0.2994791666666667,-0.4049479166666667,1,0,0,ansOne,,,,,,,,,,,,,,,,,2,2022-11-01_11h56.48.543,musicalMathTest,2022.2.0,60.015688101552,
music\calm\vocals\Rose Gold (90) by Cabri x Sub Q Taneous.wav,rose gold,calm,vocals,2,90,multiply,18,10,180,190,184,182,0,0,0,8,0,26,26,68,,,,,,,,,,,,,,,,,,,,,,,,,,,,,,,109.7247434000019,109.7247434000019,109.7247434000019,109.7247434000019,109.7247434000019,0.014079399988986552,109.7247434000019,True,-0.09114583333333333,-0.3997395833333333,1,0,0,ansTwo,,,,,,,,,,,,,,,,,2,2022-11-01_11h56.48.543,musicalMathTest,2022.2.0,60.015688101552,
music\calm\vocals\Rose Gold (90) by Cabri x Sub Q Taneous.wav,rose gold,calm,vocals,2,90,multiply,5,21,105,107,109,108,0,0,0,8,0,27,27,113,,,,,,,,,,,,,,,,,,,,,,,,,,,,,,,111.60202380000555,111.60202380000555,111.60202380000555,111.60202380000555,111.60202380000555,0.010819499992066994,111.60202380000555,True,-0.28515625,-0.3997395833333333,1,0,0,ansOne,,,,,,,,,,,,,,,,,2,2022-11-01_11h56.48.543,musicalMathTest,2022.2.0,60.015688101552,
music\calm\vocals\Rose Gold (90) by Cabri x Sub Q Taneous.wav,rose gold,calm,vocals,2,90,add,49,22,71,76,81,76,0,0,0,8,0,28,28,16,,,,,,,,,,,,,,,,,,,,,,,,,,,,,,,113.9546246999962,113.9546246999962,113.9546246999962,113.9546246999962,113.9546246999962,0.012305099997320212,113.9546246999962,True,-0.10677083333333333,-0.3971354166666667,1,0,0,ansTwo,,,,,,,,,,,,,,,,,2,2022-11-01_11h56.48.543,musicalMathTest,2022.2.0,60.015688101552,
music\calm\vocals\Rose Gold (90) by Cabri x Sub Q Taneous.wav,rose gold,calm,vocals,2,90,subtract,50,22,28,29,18,36,0,0,0,8,0,29,29,59,,,,,,,,,,,,,,,,,,,,,,,,,,,,,,,118.71842160000233,118.71842160000233,118.71842160000233,118.71842160000233,118.71842160000233,0.01142989999789279,118.71842160000233,True,-0.3046875,-0.4049479166666667,1,0,0,ansOne,,,,,,,,,,,,,,,,,2,2022-11-01_11h56.48.543,musicalMathTest,2022.2.0,60.015688101552,
music\calm\vocals\Rose Gold (90) by Cabri x Sub Q Taneous.wav,rose gold,calm,vocals,2,90,subtract,52,50,2,3,4,5,0,0,0,8,0,30,30,43,,,,,,,,,,,,,,,,,,,,,,,,,,,,,,,122.35056330000225,122.35056330000225,122.35056330000225,122.35056330000225,122.35056330000225,0.010121500003151596,122.35056330000225,True,-0.296875,-0.38671875,1,0,0,ansOne,,,,,,,,,,,,,,,,,2,2022-11-01_11h56.48.543,musicalMathTest,2022.2.0,60.015688101552,
music\calm\vocals\Rose Gold (90) by Cabri x Sub Q Taneous.wav,rose gold,calm,vocals,2,90,subtract,50,50,0,5,7,2,0,0,0,8,0,31,31,34,,,,,,,,,,,,,,,,,,,,,,,,,,,,,,,124.28369130000647,124.28369130000647,124.28369130000647,124.28369130000647,124.28369130000647,0.01100469999073539,124.28369130000647,True,-0.3059895833333333,-0.3997395833333333,1,0,0,ansOne,,,,,,,,,,,,,,,,,2,2022-11-01_11h56.48.543,musicalMathTest,2022.2.0,60.015688101552,
music\calm\vocals\Rose Gold (90) by Cabri x Sub Q Taneous.wav,rose gold,calm,vocals,2,90,add,50,28,78,86,85,88,0,0,0,8,0,32,32,22,,,,,,,,,,,,,,,,,,,,,,,,,,,,,,,126.06761410000036,126.06761410000036,126.06761410000036,126.06761410000036,126.06761410000036,0.013779399989289232,126.06761410000036,True,0.10546875,-0.3971354166666667,1,0,0,ansThree,,,,,,,,,,,,,,,,,2,2022-11-01_11h56.48.543,musicalMathTest,2022.2.0,60.015688101552,
music\calm\vocals\Rose Gold (90) by Cabri x Sub Q Taneous.wav,rose gold,calm,vocals,2,90,multiply,2,2,4,7,9,5,0,0,0,8,0,33,33,115,,,,,,,,,,,,,,,,,,,,,,,,,,,,,,,128.51808760000858,128.51808760000858,128.51808760000858,128.51808760000858,128.51808760000858,0.013840700004948303,128.51808760000858,True,0.10807291666666667,-0.3932291666666667,1,0,0,ansThree,,,,,,,,,,,,,,,,,2,2022-11-01_11h56.48.543,musicalMathTest,2022.2.0,60.015688101552,
music\active\instrumentals\Like This (90) (Instrumental) by MUNNYCAT.wav,like this,active,instrumental,2,90,multiply,5,6,30,36,38,42,0,1,1,7,0,0,0,71,,,,,,,,,,,,,,,,,,,,,,,,135.2768980999972,0.00959419998980593,-0.3216145833333333,-0.049479166666666664,1,0,0,142.3201240000053,142.3201240000053,142.3201240000053,142.3201240000053,142.3201240000053,0.04557189998740796,142.3201240000053,True,-0.09895833333333333,-0.4088541666666667,1,0,0,ansTwo,130.2768156999955,135.2768980999972,,,,,,,,,,,,,,,2,2022-11-01_11h56.48.543,musicalMathTest,2022.2.0,60.015688101552,
music\active\instrumentals\Like This (90) (Instrumental) by MUNNYCAT.wav,like this,active,instrumental,2,90,multiply,6,10,60,61,68,70,0,1,1,7,0,1,1,75,,,,,,,,,,,,,,,,,,,,,,,,,,,,,,,143.827638200004,143.827638200004,143.827638200004,143.827638200004,143.827638200004,0.00960970000596717,143.827638200004,True,0.09505208333333333,-0.3919270833333333,1,0,0,ansThree,,,,,,,,,,,,,,,,,2,2022-11-01_11h56.48.543,musicalMathTest,2022.2.0,60.015688101552,
music\active\instrumentals\Like This (90) (Instrumental) by MUNNYCAT.wav,like this,active,instrumental,2,90,multiply,6,10,60,68,63,67,0,1,1,7,0,2,2,91,,,,,,,,,,,,,,,,,,,,,,,,,,,,,,,145.11228169999958,145.11228169999958,145.11228169999958,145.11228169999958,145.11228169999958,0.010092700002132915,145.11228169999958,False,0.09895833333333333,-0.3958333333333333,1,0,0,ansThree,,,,,,,,,,,,,,,,,2,2022-11-01_11h56.48.543,musicalMathTest,2022.2.0,60.015688101552,
music\active\instrumentals\Like This (90) (Instrumental) by MUNNYCAT.wav,like this,active,instrumental,2,90,add,54,54,108,111,113,117,0,1,1,7,0,3,3,12,,,,,,,,,,,,,,,,,,,,,,,,,,,,,,,145.84685400000308,145.84685400000308,145.84685400000308,145.84685400000308,145.84685400000308,0.012692199990851805,145.84685400000308,True,0.11458333333333333,-0.4036458333333333,1,0,0,ansThree,,,,,,,,,,,,,,,,,2,2022-11-01_11h56.48.543,musicalMathTest,2022.2.0,60.015688101552,
music\active\instrumentals\Like This (90) (Instrumental) by MUNNYCAT.wav,like this,active,instrumental,2,90,add,49,44,93,101,97,103,0,1,1,7,0,4,4,2,,,,,,,,,,,,,,,,,,,,,,,,,,,,,,,148.89829460000328,148.89829460000328,148.89829460000328,148.89829460000328,148.89829460000328,0.013588600006187335,148.89829460000328,True,0.09635416666666667,-0.390625,1,0,0,ansThree,,,,,,,,,,,,,,,,,2,2022-11-01_11h56.48.543,musicalMathTest,2022.2.0,60.015688101552,
music\active\instrumentals\Like This (90) (Instrumental) by MUNNYCAT.wav,like this,active,instrumental,2,90,multiply,10,6,60,65,67,68,0,1,1,7,0,5,5,63,,,,,,,,,,,,,,,,,,,,,,,,,,,,,,,152.75860680000915,152.75860680000915,152.75860680000915,152.75860680000915,152.75860680000915,0.009066200000233948,152.75860680000915,True,0.09505208333333333,-0.3932291666666667,1,0,0,ansThree,,,,,,,,,,,,,,,,,2,2022-11-01_11h56.48.543,musicalMathTest,2022.2.0,60.015688101552,
music\active\instrumentals\Like This (90) (Instrumental) by MUNNYCAT.wav,like this,active,instrumental,2,90,multiply,11,2,22,29,26,27,0,1,1,7,0,6,6,117,,,,,,,,,,,,,,,,,,,,,,,,,,,,,,,153.9638028000045,153.9638028000045,153.9638028000045,153.9638028000045,153.9638028000045,0.01283069999772124,153.9638028000045,True,-0.08333333333333333,-0.4166666666666667,1,0,0,ansTwo,,,,,,,,,,,,,,,,,2,2022-11-01_11h56.48.543,musicalMathTest,2022.2.0,60.015688101552,
music\active\instrumentals\Like This (90) (Instrumental) by MUNNYCAT.wav,like this,active,instrumental,2,90,subtract,54,53,1,4,9,13,0,1,1,7,0,7,7,45,,,,,,,,,,,,,,,,,,,,,,,,,,,,,,,155.92663080000784,155.92663080000784,155.92663080000784,155.92663080000784,155.92663080000784,0.009534700002404861,155.92663080000784,True,-0.10286458333333333,-0.3841145833333333,1,0,0,ansTwo,,,,,,,,,,,,,,,,,2,2022-11-01_11h56.48.543,musicalMathTest,2022.2.0,60.015688101552,
music\active\instrumentals\Like This (90) (Instrumental) by MUNNYCAT.wav,like this,active,instrumental,2,90,multiply,5,6,30,31,38,37,0,1,1,7,0,8,8,111,,,,,,,,,,,,,,,,,,,,,,,,,,,,,,,157.74577740000677,157.74577740000677,157.74577740000677,157.74577740000677,157.74577740000677,0.012335999999777414,157.74577740000677,True,-0.2864583333333333,-0.4010416666666667,1,0,0,ansOne,,,,,,,,,,,,,,,,,2,2022-11-01_11h56.48.543,musicalMathTest,2022.2.0,60.015688101552,
music\active\instrumentals\Like This (90) (Instrumental) by MUNNYCAT.wav,like this,active,instrumental,2,90,subtract,58,26,32,38,39,43,0,1,1,7,0,9,9,57,,,,,,,,,,,,,,,,,,,,,,,,,,,,,,,159.81170449999627,159.81170449999627,159.81170449999627,159.81170449999627,159.81170449999627,0.011173899998539127,159.81170449999627,True,0.09244791666666667,-0.40625,1,0,0,ansThree,,,,,,,,,,,,,,,,,2,2022-11-01_11h56.48.543,musicalMathTest,2022.2.0,60.015688101552,
music\active\instrumentals\Like This (90) (Instrumental) by MUNNYCAT.wav,like this,active,instrumental,2,90,subtract,54,13,41,49,42,45,0,1,1,7,0,10,10,50,,,,,,,,,,,,,,,,,,,,,,,,,,,,,,,165.27723049999622,165.27723049999622,165.27723049999622,165.27723049999622,165.27723049999622,0.010950099996989593,165.27723049999622,True,-0.2903645833333333,-0.3971354166666667,1,0,0,ansOne,,,,,,,,,,,,,,,,,2,2022-11-01_11h56.48.543,musicalMathTest,2022.2.0,60.015688101552,
music\active\instrumentals\Like This (90) (Instrumental) by MUNNYCAT.wav,like this,active,instrumental,2,90,subtract,44,44,0,5,3,1,0,1,1,7,0,11,11,36,,,,,,,,,,,,,,,,,,,,,,,,,,,,,,,170.87423060000583,170.87423060000583,170.87423060000583,170.87423060000583,170.87423060000583,0.009132400009548292,170.87423060000583,True,-0.29296875,-0.3971354166666667,1,0,0,ansOne,,,,,,,,,,,,,,,,,2,2022-11-01_11h56.48.543,musicalMathTest,2022.2.0,60.015688101552,
music\active\instrumentals\Like This (90) (Instrumental) by MUNNYCAT.wav,like this,active,instrumental,2,90,multiply,14,10,140,147,141,150,0,1,1,7,0,12,12,106,,,,,,,,,,,,,,,,,,,,,,,,,,,,,,,172.72484070000064,172.72484070000064,172.72484070000064,172.72484070000064,172.72484070000064,0.011675100002321415,172.72484070000064,True,0.09375,-0.3971354166666667,1,0,0,ansThree,,,,,,,,,,,,,,,,,2,2022-11-01_11h56.48.543,musicalMathTest,2022.2.0,60.015688101552,
music\active\instrumentals\Like This (90) (Instrumental) by MUNNYCAT.wav,like this,active,instrumental,2,90,subtract,54,21,33,35,37,40,0,1,1,7,0,13,13,59,,,,,,,,,,,,,,,,,,,,,,,,,,,,,,,174.1734798999969,174.1734798999969,174.1734798999969,174.1734798999969,174.1734798999969,0.009568099994794466,174.1734798999969,True,-0.11328125,-0.4049479166666667,1,0,0,ansTwo,,,,,,,,,,,,,,,,,2,2022-11-01_11h56.48.543,musicalMathTest,2022.2.0,60.015688101552,
music\active\instrumentals\Like This (90) (Instrumental) by MUNNYCAT.wav,like this,active,instrumental,2,90,add,57,54,111,115,118,112,0,1,1,7,0,14,14,9,,,,,,,,,,,,,,,,,,,,,,,,,,,,,,,177.84358690000954,177.84358690000954,177.84358690000954,177.84358690000954,177.84358690000954,0.011602099999436177,177.84358690000954,True,-0.2981770833333333,-0.4049479166666667,1,0,0,ansOne,,,,,,,,,,,,,,,,,2,2022-11-01_11h56.48.543,musicalMathTest,2022.2.0,60.015688101552,
music\active\instrumentals\Like This (90) (Instrumental) by MUNNYCAT.wav,like this,active,instrumental,2,90,multiply,19,10,190,200,202,194,0,1,1,7,0,15,15,76,,,,,,,,,,,,,,,,,,,,,,,,,,,,,,,180.8959707000031,180.8959707000031,180.8959707000031,180.8959707000031,180.8959707000031,0.013233200006652623,180.8959707000031,True,-0.09765625,-0.4075520833333333,1,0,0,ansTwo,,,,,,,,,,,,,,,,,2,2022-11-01_11h56.48.543,musicalMathTest,2022.2.0,60.015688101552,
music\active\instrumentals\Like This (90) (Instrumental) by MUNNYCAT.wav,like this,active,instrumental,2,90,multiply,10,6,60,66,70,67,0,1,1,7,0,16,16,79,,,,,,,,,,,,,,,,,,,,,,,,,,,,,,,182.22069919999922,182.22069919999922,182.22069919999922,182.22069919999922,182.22069919999922,0.009885000006761402,182.22069919999922,True,0.08463541666666667,-0.40625,1,0,0,ansThree,,,,,,,,,,,,,,,,,2,2022-11-01_11h56.48.543,musicalMathTest,2022.2.0,60.015688101552,
music\active\instrumentals\Like This (90) (Instrumental) by MUNNYCAT.wav,like this,active,instrumental,2,90,multiply,14,5,70,76,77,71,0,1,1,7,0,17,17,82,,,,,,,,,,,,,,,,,,,,,,,,,,,,,,,183.83703419999802,183.83703419999802,183.83703419999802,183.83703419999802,183.83703419999802,0.009213600002112798,183.83703419999802,True,0.09635416666666667,-0.3932291666666667,1,0,0,ansThree,,,,,,,,,,,,,,,,,2,2022-11-01_11h56.48.543,musicalMathTest,2022.2.0,60.015688101552,
music\active\instrumentals\Like This (90) (Instrumental) by MUNNYCAT.wav,like this,active,instrumental,2,90,subtract,58,13,45,47,49,51,0,1,1,7,0,18,18,54,,,,,,,,,,,,,,,,,,,,,,,,,,,,,,,185.88967550000234,185.88967550000234,185.88967550000234,185.88967550000234,185.88967550000234,0.010806899997987784,185.88967550000234,True,-0.09765625,-0.4010416666666667,1,0,0,ansTwo,,,,,,,,,,,,,,,,,2,2022-11-01_11h56.48.543,musicalMathTest,2022.2.0,60.015688101552,
music\active\instrumentals\Like This (90) (Instrumental) by MUNNYCAT.wav,like this,active,instrumental,2,90,multiply,5,14,70,77,74,75,0,1,1,7,0,19,19,110,,,,,,,,,,,,,,,,,,,,,,,,,,,,,,,188.22035730000061,188.22035730000061,188.22035730000061,188.22035730000061,188.22035730000061,0.009283399995183572,188.22035730000061,True,-0.2890625,-0.4140625,1,0,0,ansOne,,,,,,,,,,,,,,,,,2,2022-11-01_11h56.48.543,musicalMathTest,2022.2.0,60.015688101552,
music\active\instrumentals\Like This (90) (Instrumental) by MUNNYCAT.wav,like this,active,instrumental,2,90,subtract,53,11,42,49,45,46,0,1,1,7,0,20,20,48,,,,,,,,,,,,,,,,,,,,,,,,,,,,,,,190.85692310000013,190.85692310000013,190.85692310000013,190.85692310000013,190.85692310000013,0.011481699999421835,190.85692310000013,True,-0.31640625,-0.4010416666666667,1,0,0,ansOne,,,,,,,,,,,,,,,,,2,2022-11-01_11h56.48.543,musicalMathTest,2022.2.0,60.015688101552,
music\active\instrumentals\Like This (90) (Instrumental) by MUNNYCAT.wav,like this,active,instrumental,2,90,subtract,57,53,4,9,10,9,0,1,1,7,0,21,21,32,,,,,,,,,,,,,,,,,,,,,,,,,,,,,,,193.10502980000456,193.10502980000456,193.10502980000456,193.10502980000456,193.10502980000456,0.012141400002292357,193.10502980000456,True,-0.10286458333333333,-0.4127604166666667,1,0,0,ansTwo,,,,,,,,,,,,,,,,,2,2022-11-01_11h56.48.543,musicalMathTest,2022.2.0,60.015688101552,
music\active\instrumentals\Like This (90) (Instrumental) by MUNNYCAT.wav,like this,active,instrumental,2,90,multiply,19,5,95,105,103,101,0,1,1,7,0,22,22,84,,,,,,,,,,,,,,,,,,,,,,,,,,,,,,,195.1915699000092,195.1915699000092,195.1915699000092,195.1915699000092,195.1915699000092,0.012798499999917112,195.1915699000092,True,-0.09505208333333333,-0.4049479166666667,1,0,0,ansTwo,,,,,,,,,,,,,,,,,2,2022-11-01_11h56.48.543,musicalMathTest,2022.2.0,60.015688101552,
music\active\instrumentals\Like This (90) (Instrumental) by MUNNYCAT.wav,like this,active,instrumental,2,90,add,53,13,66,72,70,74,0,1,1,7,0,23,23,27,,,,,,,,,,,,,,,,,,,,,,,,,,,,,,,197.73768289999862,197.73768289999862,197.73768289999862,197.73768289999862,197.73768289999862,0.011344800004735589,197.73768289999862,True,-0.296875,-0.39453125,1,0,0,ansOne,,,,,,,,,,,,,,,,,2,2022-11-01_11h56.48.543,musicalMathTest,2022.2.0,60.015688101552,
music\active\instrumentals\Like This (90) (Instrumental) by MUNNYCAT.wav,like this,active,instrumental,2,90,subtract,53,13,40,45,46,48,0,1,1,7,0,24,24,58,,,,,,,,,,,,,,,,,,,,,,,,,,,,,,,202.59168730000965,202.59168730000965,202.59168730000965,202.59168730000965,202.59168730000965,0.015780200003064238,202.59168730000965,True,-0.2825520833333333,-0.3984375,1,0,0,ansOne,,,,,,,,,,,,,,,,,2,2022-11-01_11h56.48.543,musicalMathTest,2022.2.0,60.015688101552,
music\active\instrumentals\Like This (90) (Instrumental) by MUNNYCAT.wav,like this,active,instrumental,2,90,multiply,5,14,70,71,78,75,0,1,1,7,0,25,25,70,,,,,,,,,,,,,,,,,,,,,,,,,,,,,,,204.40190060000168,204.40190060000168,204.40190060000168,204.40190060000168,204.40190060000168,0.010631600001943298,204.40190060000168,True,0.11328125,-0.3997395833333333,1,0,0,ansThree,,,,,,,,,,,,,,,,,2,2022-11-01_11h56.48.543,musicalMathTest,2022.2.0,60.015688101552,
music\active\instrumentals\Like This (90) (Instrumental) by MUNNYCAT.wav,like this,active,instrumental,2,90,subtract,54,26,28,18,33,37,0,1,1,7,0,26,26,53,,,,,,,,,,,,,,,,,,,,,,,,,,,,,,,206.52476529999694,206.52476529999694,206.52476529999694,206.52476529999694,206.52476529999694,0.01354860000719782,206.52476529999694,False,-0.2877604166666667,-0.3971354166666667,1,0,0,ansOne,,,,,,,,,,,,,,,,,2,2022-11-01_11h56.48.543,musicalMathTest,2022.2.0,60.015688101552,
music\active\instrumentals\Like This (90) (Instrumental) by MUNNYCAT.wav,like this,active,instrumental,2,90,multiply,2,11,22,26,29,23,0,1,1,7,0,27,27,89,,,,,,,,,,,,,,,,,,,,,,,,,,,,,,,210.07161250000354,210.07161250000354,210.07161250000354,210.07161250000354,210.07161250000354,0.013213099999120459,210.07161250000354,True,0.09895833333333333,-0.4192708333333333,1,0,0,ansThree,,,,,,,,,,,,,,,,,2,2022-11-01_11h56.48.543,musicalMathTest,2022.2.0,60.015688101552,
music\active\instrumentals\Like This (90) (Instrumental) by MUNNYCAT.wav,like this,active,instrumental,2,90,multiply,6,10,60,67,62,66,0,1,1,7,0,28,28,107,,,,,,,,,,,,,,,,,,,,,,,,,,,,,,,211.50655220000772,211.50655220000772,211.50655220000772,211.50655220000772,211.50655220000772,0.01428120001219213,211.50655220000772,True,-0.29296875,-0.3880208333333333,1,0,0,ansOne,,,,,,,,,,,,,,,,,2,2022-11-01_11h56.48.543,musicalMathTest,2022.2.0,60.015688101552,
music\active\instrumentals\Like This (90) (Instrumental) by MUNNYCAT.wav,like this,active,instrumental,2,90,multiply,5,19,95,102,96,100,0,1,1,7,0,29,29,72,,,,,,,,,,,,,,,,,,,,,,,,,,,,,,,213.08750750000763,213.08750750000763,213.08750750000763,213.08750750000763,213.08750750000763,0.012417099991580471,213.08750750000763,True,0.10026041666666667,-0.4075520833333333,1,0,0,ansThree,,,,,,,,,,,,,,,,,2,2022-11-01_11h56.48.543,musicalMathTest,2022.2.0,60.015688101552,
music\active\instrumentals\Like This (90) (Instrumental) by MUNNYCAT.wav,like this,active,instrumental,2,90,subtract,56,54,2,8,5,9,0,1,1,7,0,30,30,34,,,,,,,,,,,,,,,,,,,,,,,,,,,,,,,219.7651690000057,219.7651690000057,219.7651690000057,219.7651690000057,219.7651690000057,0.009380900010000914,219.7651690000057,True,-0.09635416666666667,-0.3971354166666667,1,0,0,ansTwo,,,,,,,,,,,,,,,,,2,2022-11-01_11h56.48.543,musicalMathTest,2022.2.0,60.015688101552,
music\active\instrumentals\Like This (90) (Instrumental) by MUNNYCAT.wav,like this,active,instrumental,2,90,multiply,10,19,190,197,199,191,0,1,1,7,0,31,31,80,,,,,,,,,,,,,,,,,,,,,,,,,,,,,,,221.81913469999563,221.81913469999563,221.81913469999563,221.81913469999563,221.81913469999563,0.015079300006618723,221.81913469999563,True,-0.296875,-0.3971354166666667,1,0,0,ansOne,,,,,,,,,,,,,,,,,2,2022-11-01_11h56.48.543,musicalMathTest,2022.2.0,60.015688101552,
music\active\instrumentals\Like This (90) (Instrumental) by MUNNYCAT.wav,like this,active,instrumental,2,90,subtract,44,21,23,28,30,24,0,1,1,7,0,32,32,55,,,,,,,,,,,,,,,,,,,,,,,,,,,,,,,223.74856100000034,223.74856100000034,223.74856100000034,223.74856100000034,223.74856100000034,0.009467899988521822,223.74856100000034,True,-0.11848958333333333,-0.4140625,1,0,0,ansTwo,,,,,,,,,,,,,,,,,2,2022-11-01_11h56.48.543,musicalMathTest,2022.2.0,60.015688101552,
music\silence.wav,silent,silent,silent,2,90,multiply,20,10,200,208,201,208,0,2,2,4,0,0,0,67,,,,,,,,,,,,,,,,,,,,,,,,230.9136903000035,0.013885799999115989,-0.08072916666666667,-0.12760416666666666,1,0,0,237.23315880000882,237.23315880000882,237.23315880000882,237.23315880000882,237.23315880000882,0.03473359999770764,237.23315880000882,True,-0.08984375,-0.3997395833333333,1,0,0,ansTwo,225.91118070000084,230.9136903000035,,,,,,,,,,,,,,,2,2022-11-01_11h56.48.543,musicalMathTest,2022.2.0,60.015688101552,
music\silence.wav,silent,silent,silent,2,90,multiply,10,10,100,103,105,110,0,2,2,4,0,1,1,66,,,,,,,,,,,,,,,,,,,,,,,,,,,,,,,239.48291880000033,239.48291880000033,239.48291880000033,239.48291880000033,239.48291880000033,0.012223799989442341,239.48291880000033,True,-0.10286458333333333,-0.40625,1,0,0,ansTwo,,,,,,,,,,,,,,,,,2,2022-11-01_11h56.48.543,musicalMathTest,2022.2.0,60.015688101552,
music\silence.wav,silent,silent,silent,2,90,multiply,5,7,35,41,43,39,0,2,2,4,0,2,2,72,,,,,,,,,,,,,,,,,,,,,,,,,,,,,,,240.6796725000022,240.6796725000022,240.6796725000022,240.6796725000022,240.6796725000022,0.009717399996588938,240.6796725000022,True,0.11588541666666667,-0.3984375,1,0,0,ansThree,,,,,,,,,,,,,,,,,2,2022-11-01_11h56.48.543,musicalMathTest,2022.2.0,60.015688101552,
music\silence.wav,silent,silent,silent,2,90,subtract,59,51,8,10,13,16,0,2,2,4,0,3,3,50,,,,,,,,,,,,,,,,,,,,,,,,,,,,,,,242.49722750000365,242.49722750000365,242.49722750000365,242.49722750000365,242.49722750000365,0.011058799995225854,242.49722750000365,True,-0.09505208333333333,-0.4075520833333333,1,0,0,ansTwo,,,,,,,,,,,,,,,,,2,2022-11-01_11h56.48.543,musicalMathTest,2022.2.0,60.015688101552,
music\silence.wav,silent,silent,silent,2,90,subtract,49,47,2,5,7,11,0,2,2,4,0,4,4,47,,,,,,,,,,,,,,,,,,,,,,,,,,,,,,,245.1106853000092,245.1106853000092,245.1106853000092,245.1106853000092,245.1106853000092,0.009797599996090867,245.1106853000092,True,-0.10546875,-0.3932291666666667,1,0,0,ansTwo,,,,,,,,,,,,,,,,,2,2022-11-01_11h56.48.543,musicalMathTest,2022.2.0,60.015688101552,
music\silence.wav,silent,silent,silent,2,90,add,51,47,98,102,105,108,0,2,2,4,0,5,5,20,,,,,,,,,,,,,,,,,,,,,,,,,,,,,,,246.5114831999963,246.5114831999963,246.5114831999963,246.5114831999963,246.5114831999963,0.010302900001988746,246.5114831999963,True,0.09375,-0.4049479166666667,1,0,0,ansThree,,,,,,,,,,,,,,,,,2,2022-11-01_11h56.48.543,musicalMathTest,2022.2.0,60.015688101552,
music\silence.wav,silent,silent,silent,2,90,add,50,46,96,106,97,106,0,2,2,4,0,6,6,26,,,,,,,,,,,,,,,,,,,,,,,,,,,,,,,251.41011720000824,251.41011720000824,251.41011720000824,251.41011720000824,251.41011720000824,0.009857900004135445,251.41011720000824,True,-0.09635416666666667,-0.40625,1,0,0,ansTwo,,,,,,,,,,,,,,,,,2,2022-11-01_11h56.48.543,musicalMathTest,2022.2.0,60.015688101552,
music\silence.wav,silent,silent,silent,2,90,add,59,41,100,110,107,110,0,2,2,4,0,7,7,25,,,,,,,,,,,,,,,,,,,,,,,,,,,,,,,253.5622951999976,253.5622951999976,253.5622951999976,253.5622951999976,253.5622951999976,0.01093360000231769,253.5622951999976,True,-0.30078125,-0.4036458333333333,1,0,0,ansOne,,,,,,,,,,,,,,,,,2,2022-11-01_11h56.48.543,musicalMathTest,2022.2.0,60.015688101552,
music\silence.wav,silent,silent,silent,2,90,multiply,13,10,130,132,133,137,0,2,2,4,0,8,8,69,,,,,,,,,,,,,,,,,,,,,,,,,,,,,,,256.4637516000075,256.4637516000075,256.4637516000075,256.4637516000075,256.4637516000075,0.012744899999233894,256.4637516000075,True,-0.08723958333333333,-0.4114583333333333,1,0,0,ansTwo,,,,,,,,,,,,,,,,,2,2022-11-01_11h56.48.543,musicalMathTest,2022.2.0,60.015688101552,
music\silence.wav,silent,silent,silent,2,90,multiply,2,7,14,16,17,22,0,2,2,4,0,9,9,88,,,,,,,,,,,,,,,,,,,,,,,,,,,,,,,258.0119592999981,258.0119592999981,258.0119592999981,258.0119592999981,258.0119592999981,0.010259400005452335,258.0119592999981,True,-0.2981770833333333,-0.4049479166666667,1,0,0,ansOne,,,,,,,,,,,,,,,,,2,2022-11-01_11h56.48.543,musicalMathTest,2022.2.0,60.015688101552,
music\silence.wav,silent,silent,silent,2,90,multiply,13,10,130,131,140,131,0,2,2,4,0,10,10,77,,,,,,,,,,,,,,,,,,,,,,,,,,,,,,,259.5278515999962,259.5278515999962,259.5278515999962,259.5278515999962,259.5278515999962,0.012773199996445328,259.5278515999962,True,-0.08854166666666667,-0.40625,1,0,0,ansTwo,,,,,,,,,,,,,,,,,2,2022-11-01_11h56.48.543,musicalMathTest,2022.2.0,60.015688101552,
music\silence.wav,silent,silent,silent,2,90,multiply,2,10,20,27,23,28,0,2,2,4,0,11,11,86,,,,,,,,,,,,,,,,,,,,,,,,,,,,,,,260.88262390000455,260.88262390000455,260.88262390000455,260.88262390000455,260.88262390000455,0.015434899993124418,260.88262390000455,True,-0.10677083333333333,-0.41015625,1,0,0,ansTwo,,,,,,,,,,,,,,,,,2,2022-11-01_11h56.48.543,musicalMathTest,2022.2.0,60.015688101552,
music\silence.wav,silent,silent,silent,2,90,multiply,5,10,50,52,58,56,0,2,2,4,0,12,12,110,,,,,,,,,,,,,,,,,,,,,,,,,,,,,,,261.97766760000377,261.97766760000377,261.97766760000377,261.97766760000377,261.97766760000377,0.011566899993340485,261.97766760000377,True,-0.10677083333333333,-0.41015625,1,0,0,ansTwo,,,,,,,,,,,,,,,,,2,2022-11-01_11h56.48.543,musicalMathTest,2022.2.0,60.015688101552,
music\silence.wav,silent,silent,silent,2,90,add,47,33,80,83,81,87,0,2,2,4,0,13,13,4,,,,,,,,,,,,,,,,,,,,,,,,,,,,,,,263.0776441000053,263.0776441000053,263.0776441000053,263.0776441000053,263.0776441000053,0.013048799999523908,263.0776441000053,True,-0.28125,-0.4114583333333333,1,0,0,ansOne,,,,,,,,,,,,,,,,,2,2022-11-01_11h56.48.543,musicalMathTest,2022.2.0,60.015688101552,
music\silence.wav,silent,silent,silent,2,90,multiply,10,7,70,76,72,73,0,2,2,4,0,14,14,104,,,,,,,,,,,,,,,,,,,,,,,,,,,,,,,265.9147004999977,265.9147004999977,265.9147004999977,265.9147004999977,265.9147004999977,0.013356900002690963,265.9147004999977,True,0.08072916666666667,-0.3997395833333333,1,0,0,ansThree,,,,,,,,,,,,,,,,,2,2022-11-01_11h56.48.543,musicalMathTest,2022.2.0,60.015688101552,
music\silence.wav,silent,silent,silent,2,90,subtract,59,47,12,2,17,21,0,2,2,4,0,15,15,59,,,,,,,,,,,,,,,,,,,,,,,,,,,,,,,267.56080510000174,267.56080510000174,267.56080510000174,267.56080510000174,267.56080510000174,0.010315899999113753,267.56080510000174,True,-0.09765625,-0.39453125,1,0,0,ansTwo,,,,,,,,,,,,,,,,,2,2022-11-01_11h56.48.543,musicalMathTest,2022.2.0,60.015688101552,
music\silence.wav,silent,silent,silent,2,90,subtract,47,12,35,36,42,40,0,2,2,4,0,16,16,31,,,,,,,,,,,,,,,,,,,,,,,,,,,,,,,269.7899483000074,269.7899483000074,269.7899483000074,269.7899483000074,269.7899483000074,0.009861699989414774,269.7899483000074,True,0.08723958333333333,-0.3958333333333333,1,0,0,ansThree,,,,,,,,,,,,,,,,,2,2022-11-01_11h56.48.543,musicalMathTest,2022.2.0,60.015688101552,
music\silence.wav,silent,silent,silent,2,90,add,50,46,96,98,101,99,0,2,2,4,0,17,17,18,,,,,,,,,,,,,,,,,,,,,,,,,,,,,,,272.49269680000725,272.49269680000725,272.49269680000725,272.49269680000725,272.49269680000725,0.012232599998242222,272.49269680000725,True,0.10286458333333333,-0.40234375,1,0,0,ansThree,,,,,,,,,,,,,,,,,2,2022-11-01_11h56.48.543,musicalMathTest,2022.2.0,60.015688101552,
music\silence.wav,silent,silent,silent,2,90,multiply,7,10,70,74,72,74,0,2,2,4,0,18,18,76,,,,,,,,,,,,,,,,,,,,,,,,,,,,,,,274.45853210000496,274.45853210000496,274.45853210000496,274.45853210000496,274.45853210000496,0.010170999987167306,274.45853210000496,True,-0.10546875,-0.41015625,1,0,0,ansTwo,,,,,,,,,,,,,,,,,2,2022-11-01_11h56.48.543,musicalMathTest,2022.2.0,60.015688101552,
music\silence.wav,silent,silent,silent,2,90,multiply,10,10,100,104,101,103,0,2,2,4,0,19,19,90,,,,,,,,,,,,,,,,,,,,,,,,,,,,,,,275.6749903000018,275.6749903000018,275.6749903000018,275.6749903000018,275.6749903000018,0.011082500001066364,275.6749903000018,True,-0.2916666666666667,-0.40625,1,0,0,ansOne,,,,,,,,,,,,,,,,,2,2022-11-01_11h56.48.543,musicalMathTest,2022.2.0,60.015688101552,
music\silence.wav,silent,silent,silent,2,90,subtract,51,47,4,12,7,11,0,2,2,4,0,20,20,51,,,,,,,,,,,,,,,,,,,,,,,,,,,,,,,277.0769098000019,277.0769098000019,277.0769098000019,277.0769098000019,277.0769098000019,0.0124801999918418,277.0769098000019,True,-0.3046875,-0.3841145833333333,1,0,0,ansOne,,,,,,,,,,,,,,,,,2,2022-11-01_11h56.48.543,musicalMathTest,2022.2.0,60.015688101552,
music\silence.wav,silent,silent,silent,2,90,subtract,59,41,18,25,26,22,0,2,2,4,0,21,21,56,,,,,,,,,,,,,,,,,,,,,,,,,,,,,,,280.2577545999957,280.2577545999957,280.2577545999957,280.2577545999957,280.2577545999957,0.011825399997178465,280.2577545999957,True,0.1015625,-0.4010416666666667,1,0,0,ansThree,,,,,,,,,,,,,,,,,2,2022-11-01_11h56.48.543,musicalMathTest,2022.2.0,60.015688101552,
music\silence.wav,silent,silent,silent,2,90,multiply,20,10,200,202,206,204,0,2,2,4,0,22,22,91,,,,,,,,,,,,,,,,,,,,,,,,,,,,,,,283.0723185000097,283.0723185000097,283.0723185000097,283.0723185000097,283.0723185000097,0.009799899999052286,283.0723185000097,True,0.10677083333333333,-0.4036458333333333,1,0,0,ansThree,,,,,,,,,,,,,,,,,2,2022-11-01_11h56.48.543,musicalMathTest,2022.2.0,60.015688101552,
music\silence.wav,silent,silent,silent,2,90,multiply,13,5,65,72,70,73,0,2,2,4,0,23,23,101,,,,,,,,,,,,,,,,,,,,,,,,,,,,,,,284.7083239000058,284.7083239000058,284.7083239000058,284.7083239000058,284.7083239000058,0.014017699999385513,284.7083239000058,True,0.10026041666666667,-0.4127604166666667,1,0,0,ansThree,,,,,,,,,,,,,,,,,2,2022-11-01_11h56.48.543,musicalMathTest,2022.2.0,60.015688101552,
music\silence.wav,silent,silent,silent,2,90,multiply,20,10,200,208,206,208,0,2,2,4,0,24,24,75,,,,,,,,,,,,,,,,,,,,,,,,,,,,,,,287.15809169999557,287.15809169999557,287.15809169999557,287.15809169999557,287.15809169999557,0.013513199999579228,287.15809169999557,True,-0.3125,-0.38671875,1,0,0,ansOne,,,,,,,,,,,,,,,,,2,2022-11-01_11h56.48.543,musicalMathTest,2022.2.0,60.015688101552,
music\silence.wav,silent,silent,silent,2,90,subtract,50,46,4,11,6,8,0,2,2,4,0,25,25,57,,,,,,,,,,,,,,,,,,,,,,,,,,,,,,,288.9058445999981,288.9058445999981,288.9058445999981,288.9058445999981,288.9058445999981,0.010665499998140149,288.9058445999981,True,0.09114583333333333,-0.3932291666666667,1,0,0,ansThree,,,,,,,,,,,,,,,,,2,2022-11-01_11h56.48.543,musicalMathTest,2022.2.0,60.015688101552,
music\silence.wav,silent,silent,silent,2,90,multiply,20,2,40,45,50,54,0,2,2,4,0,26,26,115,,,,,,,,,,,,,,,,,,,,,,,,,,,,,,,290.89167749999615,290.89167749999615,290.89167749999615,290.89167749999615,290.89167749999615,0.012698399994405918,290.89167749999615,True,0.11067708333333333,-0.4049479166666667,1,0,0,ansThree,,,,,,,,,,,,,,,,,2,2022-11-01_11h56.48.543,musicalMathTest,2022.2.0,60.015688101552,
music\silence.wav,silent,silent,silent,2,90,subtract,60,59,1,5,7,5,0,2,2,4,0,27,27,34,,,,,,,,,,,,,,,,,,,,,,,,,,,,,,,292.95289539999794,292.95289539999794,292.95289539999794,292.95289539999794,292.95289539999794,0.00968529999954626,292.95289539999794,True,-0.109375,-0.4075520833333333,1,0,0,ansTwo,,,,,,,,,,,,,,,,,2,2022-11-01_11h56.48.543,musicalMathTest,2022.2.0,60.015688101552,
music\silence.wav,silent,silent,silent,2,90,multiply,7,5,35,37,43,41,0,2,2,4,0,28,28,100,,,,,,,,,,,,,,,,,,,,,,,,,,,,,,,294.9397820000013,294.9397820000013,294.9397820000013,294.9397820000013,294.9397820000013,0.011687500009429641,294.9397820000013,True,-0.09505208333333333,-0.3880208333333333,1,0,0,ansTwo,,,,,,,,,,,,,,,,,2,2022-11-01_11h56.48.543,musicalMathTest,2022.2.0,60.015688101552,
music\silence.wav,silent,silent,silent,2,90,multiply,2,20,40,41,43,42,0,2,2,4,0,29,29,87,,,,,,,,,,,,,,,,,,,,,,,,,,,,,,,296.3188733999996,296.3188733999996,296.3188733999996,296.3188733999996,296.3188733999996,0.009348199993837625,296.3188733999996,True,0.11328125,-0.4010416666666667,1,0,0,ansThree,,,,,,,,,,,,,,,,,2,2022-11-01_11h56.48.543,musicalMathTest,2022.2.0,60.015688101552,
music\silence.wav,silent,silent,silent,2,90,multiply,5,20,100,103,102,101,0,2,2,4,0,30,30,71,,,,,,,,,,,,,,,,,,,,,,,,,,,,,,,297.8067805000028,297.8067805000028,297.8067805000028,297.8067805000028,297.8067805000028,0.011066599996411242,297.8067805000028,True,-0.09375,-0.4049479166666667,1,0,0,ansTwo,,,,,,,,,,,,,,,,,2,2022-11-01_11h56.48.543,musicalMathTest,2022.2.0,60.015688101552,
music\silence.wav,silent,silent,silent,2,90,add,46,12,58,66,61,59,0,2,2,4,0,31,31,10,,,,,,,,,,,,,,,,,,,,,,,,,,,,,,,299.303680099998,299.303680099998,299.303680099998,299.303680099998,299.303680099998,0.01085350000357721,299.303680099998,True,-0.3033854166666667,-0.4075520833333333,1,0,0,ansOne,,,,,,,,,,,,,,,,,2,2022-11-01_11h56.48.543,musicalMathTest,2022.2.0,60.015688101552,
music\silence.wav,silent,silent,silent,2,90,add,47,34,81,85,89,83,0,2,2,4,0,32,32,8,,,,,,,,,,,,,,,,,,,,,,,,,,,,,,,302.2917684999993,302.2917684999993,302.2917684999993,302.2917684999993,302.2917684999993,0.01527840000926517,302.2917684999993,True,-0.2981770833333333,-0.41015625,1,0,0,ansOne,,,,,,,,,,,,,,,,,2,2022-11-01_11h56.48.543,musicalMathTest,2022.2.0,60.015688101552,
music\silence.wav,silent,silent,silent,2,90,multiply,7,10,70,73,75,74,0,2,2,4,0,33,33,108,,,,,,,,,,,,,,,,,,,,,,,,,,,,,,,307.5174793000042,307.5174793000042,307.5174793000042,307.5174793000042,307.5174793000042,0.009336199989775196,307.5174793000042,True,-0.2903645833333333,-0.3971354166666667,1,0,0,ansOne,,,,,,,,,,,,,,,,,2,2022-11-01_11h56.48.543,musicalMathTest,2022.2.0,60.015688101552,
music\silence.wav,silent,silent,silent,2,90,subtract,51,12,39,47,43,41,0,2,2,4,0,34,34,38,,,,,,,,,,,,,,,,,,,,,,,,,,,,,,,308.9384726999997,308.9384726999997,308.9384726999997,308.9384726999997,308.9384726999997,0.013700499999686144,308.9384726999997,True,-0.10677083333333333,-0.4036458333333333,1,0,0,ansTwo,,,,,,,,,,,,,,,,,2,2022-11-01_11h56.48.543,musicalMathTest,2022.2.0,60.015688101552,
music\silence.wav,silent,silent,silent,2,90,add,41,12,53,59,55,63,0,2,2,4,0,35,35,13,,,,,,,,,,,,,,,,,,,,,,,,,,,,,,,318.1529178000055,318.1529178000055,318.1529178000055,318.1529178000055,318.1529178000055,0.01194979999854695,318.1529178000055,True,0.11458333333333333,-0.40625,1,0,0,ansThree,,,,,,,,,,,,,,,,,2,2022-11-01_11h56.48.543,musicalMathTest,2022.2.0,60.015688101552,
music\calm\vocals\Younger Then (90) by Allebasi.wav,younger then,calm,vocals,2,90,subtract,55,55,0,4,7,8,0,3,3,3,0,0,0,52,,,,,,,,,,,,,,,,,,,,,,,,326.0791031999979,0.010651300006429665,-0.06901041666666667,-0.20442708333333334,1,0,0,331.73087909999595,331.73087909999595,331.73087909999595,331.73087909999595,331.73087909999595,0.029131599992979318,331.73087909999595,True,-0.2981770833333333,-0.3880208333333333,1,0,0,ansOne,321.07897810000577,326.0791031999979,,,,,,,,,,,,,,,2,2022-11-01_11h56.48.543,musicalMathTest,2022.2.0,60.015688101552,
music\calm\vocals\Younger Then (90) by Allebasi.wav,younger then,calm,vocals,2,90,multiply,10,15,150,155,156,160,0,3,3,3,0,1,1,95,,,,,,,,,,,,,,,,,,,,,,,,,,,,,,,333.5666222,333.5666222,333.5666222,333.5666222,333.5666222,0.01295889999892097,333.5666222,True,-0.11067708333333333,-0.3971354166666667,1,0,0,ansTwo,,,,,,,,,,,,,,,,,2,2022-11-01_11h56.48.543,musicalMathTest,2022.2.0,60.015688101552,
music\calm\vocals\Younger Then (90) by Allebasi.wav,younger then,calm,vocals,2,90,multiply,3,10,30,34,36,31,0,3,3,3,0,2,2,66,,,,,,,,,,,,,,,,,,,,,,,,,,,,,,,334.9691693000059,334.9691693000059,334.9691693000059,334.9691693000059,334.9691693000059,0.015438100002938882,334.9691693000059,True,-0.3111979166666667,-0.39453125,1,0,0,ansOne,,,,,,,,,,,,,,,,,2,2022-11-01_11h56.48.543,musicalMathTest,2022.2.0,60.015688101552,
music\calm\vocals\Younger Then (90) by Allebasi.wav,younger then,calm,vocals,2,90,multiply,10,4,40,41,50,54,0,3,3,3,0,3,3,104,,,,,,,,,,,,,,,,,,,,,,,,,,,,,,,336.76296300000104,336.76296300000104,336.76296300000104,336.76296300000104,336.76296300000104,0.009660099996835925,336.76296300000104,True,-0.29296875,-0.4114583333333333,1,0,0,ansOne,,,,,,,,,,,,,,,,,2,2022-11-01_11h56.48.543,musicalMathTest,2022.2.0,60.015688101552,
music\calm\vocals\Younger Then (90) by Allebasi.wav,younger then,calm,vocals,2,90,add,26,23,49,52,54,55,0,3,3,3,0,4,4,16,,,,,,,,,,,,,,,,,,,,,,,,,,,,,,,338.2661908000009,338.2661908000009,338.2661908000009,338.2661908000009,338.2661908000009,0.01258409999718424,338.2661908000009,True,0.09895833333333333,-0.3984375,1,0,0,ansThree,,,,,,,,,,,,,,,,,2,2022-11-01_11h56.48.543,musicalMathTest,2022.2.0,60.015688101552,
music\calm\vocals\Younger Then (90) by Allebasi.wav,younger then,calm,vocals,2,90,multiply,4,10,40,47,43,46,0,3,3,3,0,5,5,68,,,,,,,,,,,,,,,,,,,,,,,,,,,,,,,341.5504690000089,341.5504690000089,341.5504690000089,341.5504690000089,341.5504690000089,0.01462339999852702,341.5504690000089,True,0.09635416666666667,-0.390625,1,0,0,ansThree,,,,,,,,,,,,,,,,,2,2022-11-01_11h56.48.543,musicalMathTest,2022.2.0,60.015688101552,
music\calm\vocals\Younger Then (90) by Allebasi.wav,younger then,calm,vocals,2,90,subtract,58,55,3,6,10,7,0,3,3,3,0,6,6,60,,,,,,,,,,,,,,,,,,,,,,,,,,,,,,,342.81397280000965,342.81397280000965,342.81397280000965,342.81397280000965,342.81397280000965,0.010625199996866286,342.81397280000965,True,-0.2981770833333333,-0.3997395833333333,1,0,0,ansOne,,,,,,,,,,,,,,,,,2,2022-11-01_11h56.48.543,musicalMathTest,2022.2.0,60.015688101552,
music\calm\vocals\Younger Then (90) by Allebasi.wav,younger then,calm,vocals,2,90,multiply,4,5,20,26,30,28,0,3,3,3,0,7,7,84,,,,,,,,,,,,,,,,,,,,,,,,,,,,,,,344.3809123999963,344.3809123999963,344.3809123999963,344.3809123999963,344.3809123999963,0.010512900000321679,344.3809123999963,True,0.10807291666666667,-0.4114583333333333,1,0,0,ansThree,,,,,,,,,,,,,,,,,2,2022-11-01_11h56.48.543,musicalMathTest,2022.2.0,60.015688101552,
music\calm\vocals\Younger Then (90) by Allebasi.wav,younger then,calm,vocals,2,90,add,41,39,80,82,87,86,0,3,3,3,0,8,8,8,,,,,,,,,,,,,,,,,,,,,,,,,,,,,,,346.1357762999978,346.1357762999978,346.1357762999978,346.1357762999978,346.1357762999978,0.013105399993946776,346.1357762999978,True,-0.2994791666666667,-0.39453125,1,0,0,ansOne,,,,,,,,,,,,,,,,,2,2022-11-01_11h56.48.543,musicalMathTest,2022.2.0,60.015688101552,
music\calm\vocals\Younger Then (90) by Allebasi.wav,younger then,calm,vocals,2,90,multiply,4,10,40,43,44,42,0,3,3,3,0,9,9,92,,,,,,,,,,,,,,,,,,,,,,,,,,,,,,,347.9598158000008,347.9598158000008,347.9598158000008,347.9598158000008,347.9598158000008,0.008871000012732111,347.9598158000008,True,-0.3111979166666667,-0.4049479166666667,1,0,0,ansOne,,,,,,,,,,,,,,,,,2,2022-11-01_11h56.48.543,musicalMathTest,2022.2.0,60.015688101552,
music\calm\vocals\Younger Then (90) by Allebasi.wav,younger then,calm,vocals,2,90,add,25,23,48,49,54,58,0,3,3,3,0,10,10,20,,,,,,,,,,,,,,,,,,,,,,,,,,,,,,,349.7277971000003,349.7277971000003,349.7277971000003,349.7277971000003,349.7277971000003,0.010473999995156191,349.7277971000003,True,0.08984375,-0.3958333333333333,1,0,0,ansThree,,,,,,,,,,,,,,,,,2,2022-11-01_11h56.48.543,musicalMathTest,2022.2.0,60.015688101552,
music\calm\vocals\Younger Then (90) by Allebasi.wav,younger then,calm,vocals,2,90,multiply,2,3,6,14,7,14,0,3,3,3,0,11,11,86,,,,,,,,,,,,,,,,,,,,,,,,,,,,,,,354.99228970000695,354.99228970000695,354.99228970000695,354.99228970000695,354.99228970000695,0.009197599996696226,354.99228970000695,True,0.10026041666666667,-0.4127604166666667,1,0,0,ansThree,,,,,,,,,,,,,,,,,2,2022-11-01_11h56.48.543,musicalMathTest,2022.2.0,60.015688101552,
music\calm\vocals\Younger Then (90) by Allebasi.wav,younger then,calm,vocals,2,90,multiply,5,15,75,77,85,77,0,3,3,3,0,12,12,71,,,,,,,,,,,,,,,,,,,,,,,,,,,,,,,356.295698300004,356.295698300004,356.295698300004,356.295698300004,356.295698300004,0.010999199992511421,356.295698300004,True,0.1015625,-0.4075520833333333,1,0,0,ansThree,,,,,,,,,,,,,,,,,2,2022-11-01_11h56.48.543,musicalMathTest,2022.2.0,60.015688101552,
music\calm\vocals\Younger Then (90) by Allebasi.wav,younger then,calm,vocals,2,90,subtract,16,15,1,7,3,7,0,3,3,3,0,13,13,45,,,,,,,,,,,,,,,,,,,,,,,,,,,,,,,359.19136419999995,359.19136419999995,359.19136419999995,359.19136419999995,359.19136419999995,0.009132999999565072,359.19136419999995,True,-0.09505208333333333,-0.4049479166666667,1,0,0,ansTwo,,,,,,,,,,,,,,,,,2,2022-11-01_11h56.48.543,musicalMathTest,2022.2.0,60.015688101552,
music\calm\vocals\Younger Then (90) by Allebasi.wav,younger then,calm,vocals,2,90,multiply,3,10,30,31,32,37,0,3,3,3,0,14,14,106,,,,,,,,,,,,,,,,,,,,,,,,,,,,,,,360.3975649000058,360.3975649000058,360.3975649000058,360.3975649000058,360.3975649000058,0.013359899996430613,360.3975649000058,True,0.08072916666666667,-0.4075520833333333,1,0,0,ansThree,,,,,,,,,,,,,,,,,2,2022-11-01_11h56.48.543,musicalMathTest,2022.2.0,60.015688101552,
music\calm\vocals\Younger Then (90) by Allebasi.wav,younger then,calm,vocals,2,90,add,55,15,70,77,71,72,0,3,3,3,0,15,15,1,,,,,,,,,,,,,,,,,,,,,,,,,,,,,,,362.2328187999956,362.2328187999956,362.2328187999956,362.2328187999956,362.2328187999956,0.014759600002435036,362.2328187999956,True,0.09375,-0.3997395833333333,1,0,0,ansThree,,,,,,,,,,,,,,,,,2,2022-11-01_11h56.48.543,musicalMathTest,2022.2.0,60.015688101552,
music\calm\vocals\Younger Then (90) by Allebasi.wav,younger then,calm,vocals,2,90,add,55,39,94,96,102,106,0,3,3,3,0,16,16,5,,,,,,,,,,,,,,,,,,,,,,,,,,,,,,,363.7788888000068,363.7788888000068,363.7788888000068,363.7788888000068,363.7788888000068,0.013780000008409843,363.7788888000068,True,-0.1015625,-0.4010416666666667,1,0,0,ansTwo,,,,,,,,,,,,,,,,,2,2022-11-01_11h56.48.543,musicalMathTest,2022.2.0,60.015688101552,
music\calm\vocals\Younger Then (90) by Allebasi.wav,younger then,calm,vocals,2,90,multiply,10,17,170,173,176,180,0,3,3,3,0,17,17,105,,,,,,,,,,,,,,,,,,,,,,,,,,,,,,,371.31114050000906,371.31114050000906,371.31114050000906,371.31114050000906,371.31114050000906,0.012182699996628799,371.31114050000906,True,-0.3111979166666667,-0.3971354166666667,1,0,0,ansOne,,,,,,,,,,,,,,,,,2,2022-11-01_11h56.48.543,musicalMathTest,2022.2.0,60.015688101552,
music\calm\vocals\Younger Then (90) by Allebasi.wav,younger then,calm,vocals,2,90,multiply,17,5,85,86,89,93,0,3,3,3,0,18,18,85,,,,,,,,,,,,,,,,,,,,,,,,,,,,,,,372.81464890000643,372.81464890000643,372.81464890000643,372.81464890000643,372.81464890000643,0.013266599999042228,372.81464890000643,True,-0.09895833333333333,-0.4140625,1,0,0,ansTwo,,,,,,,,,,,,,,,,,2,2022-11-01_11h56.48.543,musicalMathTest,2022.2.0,60.015688101552,
music\calm\vocals\Younger Then (90) by Allebasi.wav,younger then,calm,vocals,2,90,subtract,41,39,2,8,4,7,0,3,3,3,0,19,19,39,,,,,,,,,,,,,,,,,,,,,,,,,,,,,,,375.6887335000065,375.6887335000065,375.6887335000065,375.6887335000065,375.6887335000065,0.009142800001427531,375.6887335000065,True,-0.2916666666666667,-0.4010416666666667,1,0,0,ansOne,,,,,,,,,,,,,,,,,2,2022-11-01_11h56.48.543,musicalMathTest,2022.2.0,60.015688101552,
music\calm\vocals\Younger Then (90) by Allebasi.wav,younger then,calm,vocals,2,90,multiply,5,15,75,76,78,77,0,3,3,3,0,20,20,111,,,,,,,,,,,,,,,,,,,,,,,,,,,,,,,377.4900947999995,377.4900947999995,377.4900947999995,377.4900947999995,377.4900947999995,0.009611799992853776,377.4900947999995,True,-0.2981770833333333,-0.40234375,1,0,0,ansOne,,,,,,,,,,,,,,,,,2,2022-11-01_11h56.48.543,musicalMathTest,2022.2.0,60.015688101552,
music\calm\vocals\Younger Then (90) by Allebasi.wav,younger then,calm,vocals,2,90,multiply,3,5,15,17,21,16,0,3,3,3,0,21,21,82,,,,,,,,,,,,,,,,,,,,,,,,,,,,,,,380.177113800004,380.177113800004,380.177113800004,380.177113800004,380.177113800004,0.012238800001796335,380.177113800004,True,0.109375,-0.39453125,1,0,0,ansThree,,,,,,,,,,,,,,,,,2,2022-11-01_11h56.48.543,musicalMathTest,2022.2.0,60.015688101552,
music\calm\vocals\Younger Then (90) by Allebasi.wav,younger then,calm,vocals,2,90,multiply,10,3,30,32,33,37,0,3,3,3,0,22,22,94,,,,,,,,,,,,,,,,,,,,,,,,,,,,,,,381.6578962000058,381.6578962000058,381.6578962000058,381.6578962000058,381.6578962000058,0.011271499999566004,381.6578962000058,True,-0.3046875,-0.390625,1,0,0,ansOne,,,,,,,,,,,,,,,,,2,2022-11-01_11h56.48.543,musicalMathTest,2022.2.0,60.015688101552,
music\calm\vocals\Younger Then (90) by Allebasi.wav,younger then,calm,vocals,2,90,multiply,17,2,34,36,42,40,0,3,3,3,0,23,23,117,,,,,,,,,,,,,,,,,,,,,,,,,,,,,,,383.27493729999696,383.27493729999696,383.27493729999696,383.27493729999696,383.27493729999696,0.012170900008641183,383.27493729999696,True,-0.10286458333333333,-0.4010416666666667,1,0,0,ansTwo,,,,,,,,,,,,,,,,,2,2022-11-01_11h56.48.543,musicalMathTest,2022.2.0,60.015688101552,
music\calm\vocals\Younger Then (90) by Allebasi.wav,younger then,calm,vocals,2,90,multiply,3,10,30,31,38,40,0,3,3,3,0,24,24,74,,,,,,,,,,,,,,,,,,,,,,,,,,,,,,,385.1218383000087,385.1218383000087,385.1218383000087,385.1218383000087,385.1218383000087,0.009960399998817593,385.1218383000087,True,-0.09375,-0.3893229166666667,1,0,0,ansTwo,,,,,,,,,,,,,,,,,2,2022-11-01_11h56.48.543,musicalMathTest,2022.2.0,60.015688101552,
music\calm\vocals\Younger Then (90) by Allebasi.wav,younger then,calm,vocals,2,90,multiply,2,4,8,11,13,9,0,3,3,3,0,25,25,88,,,,,,,,,,,,,,,,,,,,,,,,,,,,,,,386.2398791000014,386.2398791000014,386.2398791000014,386.2398791000014,386.2398791000014,0.010830600003828295,386.2398791000014,True,0.09765625,-0.4010416666666667,1,0,0,ansThree,,,,,,,,,,,,,,,,,2,2022-11-01_11h56.48.543,musicalMathTest,2022.2.0,60.015688101552,
music\calm\vocals\Younger Then (90) by Allebasi.wav,younger then,calm,vocals,2,90,add,37,15,52,59,56,60,0,3,3,3,0,26,26,11,,,,,,,,,,,,,,,,,,,,,,,,,,,,,,,388.61145959999703,388.61145959999703,388.61145959999703,388.61145959999703,388.61145959999703,0.015317399986088276,388.61145959999703,True,0.109375,-0.4010416666666667,1,0,0,ansThree,,,,,,,,,,,,,,,,,2,2022-11-01_11h56.48.543,musicalMathTest,2022.2.0,60.015688101552,
music\calm\vocals\Younger Then (90) by Allebasi.wav,younger then,calm,vocals,2,90,add,55,55,110,117,115,119,0,3,3,3,0,27,27,17,,,,,,,,,,,,,,,,,,,,,,,,,,,,,,,392.7200501000043,392.7200501000043,392.7200501000043,392.7200501000043,392.7200501000043,0.009831200004555285,392.7200501000043,True,0.078125,-0.3919270833333333,1,0,0,ansThree,,,,,,,,,,,,,,,,,2,2022-11-01_11h56.48.543,musicalMathTest,2022.2.0,60.015688101552,
music\calm\vocals\Younger Then (90) by Allebasi.wav,younger then,calm,vocals,2,90,subtract,55,16,39,40,42,41,0,3,3,3,0,28,28,40,,,,,,,,,,,,,,,,,,,,,,,,,,,,,,,394.23694539999997,394.23694539999997,394.23694539999997,394.23694539999997,394.23694539999997,0.010114000004250556,394.23694539999997,True,-0.2955729166666667,-0.4036458333333333,1,0,0,ansOne,,,,,,,,,,,,,,,,,2,2022-11-01_11h56.48.543,musicalMathTest,2022.2.0,60.015688101552,
music\calm\vocals\Younger Then (90) by Allebasi.wav,younger then,calm,vocals,2,90,multiply,4,2,8,13,11,13,0,3,3,3,0,29,29,116,,,,,,,,,,,,,,,,,,,,,,,,,,,,,,,398.1572947000095,398.1572947000095,398.1572947000095,398.1572947000095,398.1572947000095,0.012090400006854907,398.1572947000095,True,0.10546875,-0.3971354166666667,1,0,0,ansThree,,,,,,,,,,,,,,,,,2,2022-11-01_11h56.48.543,musicalMathTest,2022.2.0,60.015688101552,
music\calm\vocals\Younger Then (90) by Allebasi.wav,younger then,calm,vocals,2,90,subtract,37,37,0,2,4,2,0,3,3,3,0,30,30,50,,,,,,,,,,,,,,,,,,,,,,,,,,,,,,,399.4437204999995,399.4437204999995,399.4437204999995,399.4437204999995,399.4437204999995,0.014335100000607781,399.4437204999995,True,0.10677083333333333,-0.4127604166666667,1,0,0,ansThree,,,,,,,,,,,,,,,,,2,2022-11-01_11h56.48.543,musicalMathTest,2022.2.0,60.015688101552,
music\calm\vocals\Younger Then (90) by Allebasi.wav,younger then,calm,vocals,2,90,subtract,39,23,16,19,18,20,0,3,3,3,0,31,31,55,,,,,,,,,,,,,,,,,,,,,,,,,,,,,,,400.78771869999764,400.78771869999764,400.78771869999764,400.78771869999764,400.78771869999764,0.009164200004306622,400.78771869999764,True,-0.2994791666666667,-0.3958333333333333,1,0,0,ansOne,,,,,,,,,,,,,,,,,2,2022-11-01_11h56.48.543,musicalMathTest,2022.2.0,60.015688101552,
music\calm\vocals\Younger Then (90) by Allebasi.wav,younger then,calm,vocals,2,90,add,55,55,110,115,117,111,0,3,3,3,0,32,32,21,,,,,,,,,,,,,,,,,,,,,,,,,,,,,,,402.84230489999754,402.84230489999754,402.84230489999754,402.84230489999754,402.84230489999754,0.015236999999615364,402.84230489999754,True,0.07942708333333333,-0.40234375,1,0,0,ansThree,,,,,,,,,,,,,,,,,2,2022-11-01_11h56.48.543,musicalMathTest,2022.2.0,60.015688101552,
music\calm\vocals\Younger Then (90) by Allebasi.wav,younger then,calm,vocals,2,90,multiply,15,10,150,156,155,157,0,3,3,3,0,33,33,91,,,,,,,,,,,,,,,,,,,,,,,,,,,,,,,404.4555224000069,404.4555224000069,404.4555224000069,404.4555224000069,404.4555224000069,0.012269500002730638,404.4555224000069,True,-0.2890625,-0.3971354166666667,1,0,0,ansOne,,,,,,,,,,,,,,,,,2,2022-11-01_11h56.48.543,musicalMathTest,2022.2.0,60.015688101552,
music\calm\vocals\Younger Then (90) by Allebasi.wav,younger then,calm,vocals,2,90,subtract,55,15,40,46,44,48,0,3,3,3,0,34,34,32,,,,,,,,,,,,,,,,,,,,,,,,,,,,,,,405.8004326000082,405.8004326000082,405.8004326000082,405.8004326000082,405.8004326000082,0.009514699995634146,405.8004326000082,True,0.11588541666666667,-0.3893229166666667,1,0,0,ansThree,,,,,,,,,,,,,,,,,2,2022-11-01_11h56.48.543,musicalMathTest,2022.2.0,60.015688101552,
music\calm\vocals\Younger Then (90) by Allebasi.wav,younger then,calm,vocals,2,90,add,39,23,62,65,66,69,0,3,3,3,0,35,35,24,,,,,,,,,,,,,,,,,,,,,,,,,,,,,,,407.51827810000395,407.51827810000395,407.51827810000395,407.51827810000395,407.51827810000395,0.009565300002577715,407.51827810000395,True,0.11848958333333333,-0.3984375,1,0,0,ansThree,,,,,,,,,,,,,,,,,2,2022-11-01_11h56.48.543,musicalMathTest,2022.2.0,60.015688101552,
music\calm\vocals\Younger Then (90) by Allebasi.wav,younger then,calm,vocals,2,90,multiply,4,10,40,45,42,48,0,3,3,3,0,36,36,108,,,,,,,,,,,,,,,,,,,,,,,,,,,,,,,412.4495489999972,412.4495489999972,412.4495489999972,412.4495489999972,412.4495489999972,0.009657600006903522,412.4495489999972,True,-0.10546875,-0.3958333333333333,1,0,0,ansTwo,,,,,,,,,,,,,,,,,2,2022-11-01_11h56.48.543,musicalMathTest,2022.2.0,60.015688101552,
music\calm\vocals\Younger Then (90) by Allebasi.wav,younger then,calm,vocals,2,90,add,23,16,39,47,43,41,0,3,3,3,0,37,37,12,,,,,,,,,,,,,,,,,,,,,,,,,,,,,,,413.4866475000017,413.4866475000017,413.4866475000017,413.4866475000017,413.4866475000017,0.013699399991310202,413.4866475000017,True,-0.08333333333333333,-0.4049479166666667,1,0,0,ansTwo,,,,,,,,,,,,,,,,,2,2022-11-01_11h56.48.543,musicalMathTest,2022.2.0,60.015688101552,
music\active\instrumentals\Soda Pop (90) (Instrumental) by Stony Pony.wav,soda pop,active,instrumental,2,90,multiply,19,5,95,101,100,97,0,4,4,0,0,0,0,100,,,,,,,,,,,,,,,,,,,,,,,,421.4810928000079,0.01241519999166485,-0.203125,-0.12630208333333334,1,0,0,425.8371867000096,425.8371867000096,425.8371867000096,425.8371867000096,425.8371867000096,0.02861730000586249,425.8371867000096,True,-0.10416666666666667,-0.4127604166666667,1,0,0,ansTwo,416.480069600002,421.4810928000079,,,,,,,,,,,,,,,2,2022-11-01_11h56.48.543,musicalMathTest,2022.2.0,60.015688101552,
music\active\instrumentals\Soda Pop (90) (Instrumental) by Stony Pony.wav,soda pop,active,instrumental,2,90,add,56,54,110,116,118,122,0,4,4,0,0,1,1,3,,,,,,,,,,,,,,,,,,,,,,,,,,,,,,,430.1798361999972,430.1798361999972,430.1798361999972,430.1798361999972,430.1798361999972,0.009512200005701743,430.1798361999972,True,-0.2903645833333333,-0.3997395833333333,1,0,0,ansOne,,,,,,,,,,,,,,,,,2,2022-11-01_11h56.48.543,musicalMathTest,2022.2.0,60.015688101552,
music\active\instrumentals\Soda Pop (90) (Instrumental) by Stony Pony.wav,soda pop,active,instrumental,2,90,multiply,10,6,60,65,67,68,0,4,4,0,0,2,2,63,,,,,,,,,,,,,,,,,,,,,,,,,,,,,,,432.3486978000001,432.3486978000001,432.3486978000001,432.3486978000001,432.3486978000001,0.011237800004892051,432.3486978000001,True,-0.3138020833333333,-0.3919270833333333,1,0,0,ansOne,,,,,,,,,,,,,,,,,2,2022-11-01_11h56.48.543,musicalMathTest,2022.2.0,60.015688101552,
music\active\instrumentals\Soda Pop (90) (Instrumental) by Stony Pony.wav,soda pop,active,instrumental,2,90,multiply,11,5,55,58,56,62,0,4,4,0,0,3,3,101,,,,,,,,,,,,,,,,,,,,,,,,,,,,,,,433.69735480000963,433.69735480000963,433.69735480000963,433.69735480000963,433.69735480000963,0.009321300007286482,433.69735480000963,True,0.1171875,-0.4114583333333333,1,0,0,ansThree,,,,,,,,,,,,,,,,,2,2022-11-01_11h56.48.543,musicalMathTest,2022.2.0,60.015688101552,
music\active\instrumentals\Soda Pop (90) (Instrumental) by Stony Pony.wav,soda pop,active,instrumental,2,90,multiply,10,11,110,120,111,116,0,4,4,0,0,4,4,105,,,,,,,,,,,,,,,,,,,,,,,,,,,,,,,436.2012942000001,436.2012942000001,436.2012942000001,436.2012942000001,436.2012942000001,0.013303499988978729,436.2012942000001,True,0.08203125,-0.3997395833333333,1,0,0,ansThree,,,,,,,,,,,,,,,,,2,2022-11-01_11h56.48.543,musicalMathTest,2022.2.0,60.015688101552,
music\active\instrumentals\Soda Pop (90) (Instrumental) by Stony Pony.wav,soda pop,active,instrumental,2,90,add,54,13,67,69,70,74,0,4,4,0,0,5,5,19,,,,,,,,,,,,,,,,,,,,,,,,,,,,,,,437.6641212999966,437.6641212999966,437.6641212999966,437.6641212999966,437.6641212999966,0.009218699997290969,437.6641212999966,True,-0.1015625,-0.3997395833333333,1,0,0,ansTwo,,,,,,,,,,,,,,,,,2,2022-11-01_11h56.48.543,musicalMathTest,2022.2.0,60.015688101552,
music\active\instrumentals\Soda Pop (90) (Instrumental) by Stony Pony.wav,soda pop,active,instrumental,2,90,subtract,53,11,42,49,45,46,0,4,4,0,0,6,6,48,,,,,,,,,,,,,,,,,,,,,,,,,,,,,,,443.2997338999994,443.2997338999994,443.2997338999994,443.2997338999994,443.2997338999994,0.01285059998917859,443.2997338999994,True,0.08463541666666667,-0.4114583333333333,1,0,0,ansThree,,,,,,,,,,,,,,,,,2,2022-11-01_11h56.48.543,musicalMathTest,2022.2.0,60.015688101552,
music\active\instrumentals\Soda Pop (90) (Instrumental) by Stony Pony.wav,soda pop,active,instrumental,2,90,multiply,11,10,110,120,117,113,0,4,4,0,0,7,7,109,,,,,,,,,,,,,,,,,,,,,,,,,,,,,,,445.8783151000098,445.8783151000098,445.8783151000098,445.8783151000098,445.8783151000098,0.00937700000940822,445.8783151000098,True,-0.09765625,-0.3984375,1,0,0,ansTwo,,,,,,,,,,,,,,,,,2,2022-11-01_11h56.48.543,musicalMathTest,2022.2.0,60.015688101552,
music\active\instrumentals\Soda Pop (90) (Instrumental) by Stony Pony.wav,soda pop,active,instrumental,2,90,multiply,14,10,140,144,146,143,0,4,4,0,0,8,8,66,,,,,,,,,,,,,,,,,,,,,,,,,,,,,,,447.2445527000091,447.2445527000091,447.2445527000091,447.2445527000091,447.2445527000091,0.009583199993357994,447.2445527000091,True,-0.28515625,-0.3958333333333333,1,0,0,ansOne,,,,,,,,,,,,,,,,,2,2022-11-01_11h56.48.543,musicalMathTest,2022.2.0,60.015688101552,
music\active\instrumentals\Soda Pop (90) (Instrumental) by Stony Pony.wav,soda pop,active,instrumental,2,90,multiply,19,10,190,195,192,196,0,4,4,0,0,9,9,108,,,,,,,,,,,,,,,,,,,,,,,,,,,,,,,449.29662459999963,449.29662459999963,449.29662459999963,449.29662459999963,449.29662459999963,0.012405500005115755,449.29662459999963,True,-0.3098958333333333,-0.3997395833333333,1,0,0,ansOne,,,,,,,,,,,,,,,,,2,2022-11-01_11h56.48.543,musicalMathTest,2022.2.0,60.015688101552,
music\active\instrumentals\Soda Pop (90) (Instrumental) by Stony Pony.wav,soda pop,active,instrumental,2,90,multiply,6,10,60,61,62,66,0,4,4,0,0,10,10,67,,,,,,,,,,,,,,,,,,,,,,,,,,,,,,,450.8972786000086,450.8972786000086,450.8972786000086,450.8972786000086,450.8972786000086,0.009436000007553957,450.8972786000086,True,-0.3059895833333333,-0.3984375,1,0,0,ansOne,,,,,,,,,,,,,,,,,2,2022-11-01_11h56.48.543,musicalMathTest,2022.2.0,60.015688101552,
music\active\instrumentals\Soda Pop (90) (Instrumental) by Stony Pony.wav,soda pop,active,instrumental,2,90,multiply,6,10,60,67,62,66,0,4,4,0,0,11,11,107,,,,,,,,,,,,,,,,,,,,,,,,,,,,,,,452.24599060000037,452.24599060000037,452.24599060000037,452.24599060000037,452.24599060000037,0.00991999999678228,452.24599060000037,False,-0.3125,-0.4010416666666667,1,0,0,ansOne,,,,,,,,,,,,,,,,,2,2022-11-01_11h56.48.543,musicalMathTest,2022.2.0,60.015688101552,
music\active\instrumentals\Soda Pop (90) (Instrumental) by Stony Pony.wav,soda pop,active,instrumental,2,90,add,44,21,65,68,75,72,0,4,4,0,0,12,12,24,,,,,,,,,,,,,,,,,,,,,,,,,,,,,,,452.85976859999937,452.85976859999937,452.85976859999937,452.85976859999937,452.85976859999937,0.009449300006963313,452.85976859999937,True,-0.10807291666666667,-0.3997395833333333,1,0,0,ansTwo,,,,,,,,,,,,,,,,,2,2022-11-01_11h56.48.543,musicalMathTest,2022.2.0,60.015688101552,
music\active\instrumentals\Soda Pop (90) (Instrumental) by Stony Pony.wav,soda pop,active,instrumental,2,90,subtract,54,11,43,33,48,52,0,4,4,0,0,13,13,56,,,,,,,,,,,,,,,,,,,,,,,,,,,,,,,456.2930701000005,456.2930701000005,456.2930701000005,456.2930701000005,456.2930701000005,0.009518399994703941,456.2930701000005,True,-0.08984375,-0.4010416666666667,1,0,0,ansTwo,,,,,,,,,,,,,,,,,2,2022-11-01_11h56.48.543,musicalMathTest,2022.2.0,60.015688101552,
music\active\instrumentals\Soda Pop (90) (Instrumental) by Stony Pony.wav,soda pop,active,instrumental,2,90,add,58,13,71,79,76,80,0,4,4,0,0,14,14,23,,,,,,,,,,,,,,,,,,,,,,,,,,,,,,,458.81050619999587,458.81050619999587,458.81050619999587,458.81050619999587,458.81050619999587,0.009615500006475486,458.81050619999587,True,-0.3177083333333333,-0.3919270833333333,1,0,0,ansOne,,,,,,,,,,,,,,,,,2,2022-11-01_11h56.48.543,musicalMathTest,2022.2.0,60.015688101552,
music\active\instrumentals\Soda Pop (90) (Instrumental) by Stony Pony.wav,soda pop,active,instrumental,2,90,multiply,10,14,140,144,142,146,0,4,4,0,0,15,15,78,,,,,,,,,,,,,,,,,,,,,,,,,,,,,,,465.814114000008,465.814114000008,465.814114000008,465.814114000008,465.814114000008,0.013091699991491623,465.814114000008,True,0.10286458333333333,-0.3958333333333333,1,0,0,ansThree,,,,,,,,,,,,,,,,,2,2022-11-01_11h56.48.543,musicalMathTest,2022.2.0,60.015688101552,
music\active\instrumentals\Soda Pop (90) (Instrumental) by Stony Pony.wav,soda pop,active,instrumental,2,90,add,49,44,93,101,97,103,0,4,4,0,0,16,16,2,,,,,,,,,,,,,,,,,,,,,,,,,,,,,,,467.3909746999998,467.3909746999998,467.3909746999998,467.3909746999998,467.3909746999998,0.009750199998961762,467.3909746999998,True,-0.30078125,-0.40234375,1,0,0,ansOne,,,,,,,,,,,,,,,,,2,2022-11-01_11h56.48.543,musicalMathTest,2022.2.0,60.015688101552,
music\active\instrumentals\Soda Pop (90) (Instrumental) by Stony Pony.wav,soda pop,active,instrumental,2,90,subtract,44,26,18,22,25,8,0,4,4,0,0,17,17,49,,,,,,,,,,,,,,,,,,,,,,,,,,,,,,,470.5823449000018,470.5823449000018,470.5823449000018,470.5823449000018,470.5823449000018,0.015931899994029664,470.5823449000018,True,-0.2903645833333333,-0.4075520833333333,1,0,0,ansOne,,,,,,,,,,,,,,,,,2,2022-11-01_11h56.48.543,musicalMathTest,2022.2.0,60.015688101552,
music\active\instrumentals\Soda Pop (90) (Instrumental) by Stony Pony.wav,soda pop,active,instrumental,2,90,subtract,56,53,3,11,10,8,0,4,4,0,0,18,18,42,,,,,,,,,,,,,,,,,,,,,,,,,,,,,,,475.955990500006,475.955990500006,475.955990500006,475.955990500006,475.955990500006,0.008935400008340366,475.955990500006,True,0.09244791666666667,-0.3932291666666667,1,0,0,ansThree,,,,,,,,,,,,,,,,,2,2022-11-01_11h56.48.543,musicalMathTest,2022.2.0,60.015688101552,
music\active\instrumentals\Soda Pop (90) (Instrumental) by Stony Pony.wav,soda pop,active,instrumental,2,90,add,53,11,64,68,67,71,0,4,4,0,0,19,19,17,,,,,,,,,,,,,,,,,,,,,,,,,,,,,,,477.424463000003,477.424463000003,477.424463000003,477.424463000003,477.424463000003,0.010115699988091365,477.424463000003,True,-0.3020833333333333,-0.3815104166666667,1,0,0,ansOne,,,,,,,,,,,,,,,,,2,2022-11-01_11h56.48.543,musicalMathTest,2022.2.0,60.015688101552,
music\active\instrumentals\Soda Pop (90) (Instrumental) by Stony Pony.wav,soda pop,active,instrumental,2,90,add,46,44,90,95,100,91,0,4,4,0,0,20,20,8,,,,,,,,,,,,,,,,,,,,,,,,,,,,,,,481.7211279000039,481.7211279000039,481.7211279000039,481.7211279000039,481.7211279000039,0.009453099992242642,481.7211279000039,True,0.10416666666666667,-0.4075520833333333,1,0,0,ansThree,,,,,,,,,,,,,,,,,2,2022-11-01_11h56.48.543,musicalMathTest,2022.2.0,60.015688101552,
music\active\instrumentals\Soda Pop (90) (Instrumental) by Stony Pony.wav,soda pop,active,instrumental,2,90,subtract,44,44,0,1,2,3,0,4,4,0,0,21,21,46,,,,,,,,,,,,,,,,,,,,,,,,,,,,,,,484.188210399996,484.188210399996,484.188210399996,484.188210399996,484.188210399996,0.009593800001312047,484.188210399996,True,-0.1015625,-0.40234375,1,0,0,ansTwo,,,,,,,,,,,,,,,,,2,2022-11-01_11h56.48.543,musicalMathTest,2022.2.0,60.015688101552,
music\active\instrumentals\Soda Pop (90) (Instrumental) by Stony Pony.wav,soda pop,active,instrumental,2,90,add,62,58,120,122,124,127,0,4,4,0,0,22,22,13,,,,,,,,,,,,,,,,,,,,,,,,,,,,,,,486.67529490000743,486.67529490000743,486.67529490000743,486.67529490000743,486.67529490000743,0.0123609000002034,486.67529490000743,True,-0.3177083333333333,-0.3971354166666667,1,0,0,ansOne,,,,,,,,,,,,,,,,,2,2022-11-01_11h56.48.543,musicalMathTest,2022.2.0,60.015688101552,
music\active\instrumentals\Soda Pop (90) (Instrumental) by Stony Pony.wav,soda pop,active,instrumental,2,90,add,53,13,66,72,70,74,0,4,4,0,0,23,23,27,,,,,,,,,,,,,,,,,,,,,,,,,,,,,,,489.3212038000056,489.3212038000056,489.3212038000056,489.3212038000056,489.3212038000056,0.009514499994111247,489.3212038000056,True,-0.30859375,-0.4010416666666667,1,0,0,ansOne,,,,,,,,,,,,,,,,,2,2022-11-01_11h56.48.543,musicalMathTest,2022.2.0,60.015688101552,
music\active\instrumentals\Soda Pop (90) (Instrumental) by Stony Pony.wav,soda pop,active,instrumental,2,90,multiply,11,5,55,61,63,61,0,4,4,0,0,24,24,85,,,,,,,,,,,,,,,,,,,,,,,,,,,,,,,491.25483820000954,491.25483820000954,491.25483820000954,491.25483820000954,491.25483820000954,0.010646599999745376,491.25483820000954,True,-0.2994791666666667,-0.3932291666666667,1,0,0,ansOne,,,,,,,,,,,,,,,,,2,2022-11-01_11h56.48.543,musicalMathTest,2022.2.0,60.015688101552,
music\active\instrumentals\Soda Pop (90) (Instrumental) by Stony Pony.wav,soda pop,active,instrumental,2,90,multiply,10,6,60,66,63,64,0,4,4,0,0,25,25,95,,,,,,,,,,,,,,,,,,,,,,,,,,,,,,,492.75636929999746,492.75636929999746,492.75636929999746,492.75636929999746,492.75636929999746,0.011614000002737157,492.75636929999746,True,-0.3020833333333333,-0.40625,1,0,0,ansOne,,,,,,,,,,,,,,,,,2,2022-11-01_11h56.48.543,musicalMathTest,2022.2.0,60.015688101552,
music\active\instrumentals\Soda Pop (90) (Instrumental) by Stony Pony.wav,soda pop,active,instrumental,2,90,multiply,19,10,190,200,202,194,0,4,4,0,0,26,26,76,,,,,,,,,,,,,,,,,,,,,,,,,,,,,,,494.20504800000344,494.20504800000344,494.20504800000344,494.20504800000344,494.20504800000344,0.010690099996281788,494.20504800000344,True,-0.30859375,-0.4088541666666667,1,0,0,ansOne,,,,,,,,,,,,,,,,,2,2022-11-01_11h56.48.543,musicalMathTest,2022.2.0,60.015688101552,
music\active\instrumentals\Soda Pop (90) (Instrumental) by Stony Pony.wav,soda pop,active,instrumental,2,90,multiply,11,2,22,29,26,27,0,4,4,0,0,27,27,117,,,,,,,,,,,,,,,,,,,,,,,,,,,,,,,495.9400661999971,495.9400661999971,495.9400661999971,495.9400661999971,495.9400661999971,0.011831900003016926,495.9400661999971,True,-0.3190104166666667,-0.41015625,1,0,0,ansOne,,,,,,,,,,,,,,,,,2,2022-11-01_11h56.48.543,musicalMathTest,2022.2.0,60.015688101552,
music\active\instrumentals\Soda Pop (90) (Instrumental) by Stony Pony.wav,soda pop,active,instrumental,2,90,multiply,2,11,22,26,29,23,0,4,4,0,0,28,28,89,,,,,,,,,,,,,,,,,,,,,,,,,,,,,,,497.7065273000044,497.7065273000044,497.7065273000044,497.7065273000044,497.7065273000044,0.013246100003016181,497.7065273000044,True,0.10546875,-0.4049479166666667,1,0,0,ansThree,,,,,,,,,,,,,,,,,2,2022-11-01_11h56.48.543,musicalMathTest,2022.2.0,60.015688101552,
music\active\instrumentals\Soda Pop (90) (Instrumental) by Stony Pony.wav,soda pop,active,instrumental,2,90,subtract,58,53,5,11,7,13,0,4,4,0,0,29,29,35,,,,,,,,,,,,,,,,,,,,,,,,,,,,,,,500.52150200000324,500.52150200000324,500.52150200000324,500.52150200000324,500.52150200000324,0.009576099997502752,500.52150200000324,True,-0.10416666666666667,-0.4205729166666667,1,0,0,ansTwo,,,,,,,,,,,,,,,,,2,2022-11-01_11h56.48.543,musicalMathTest,2022.2.0,60.015688101552,
music\active\instrumentals\Soda Pop (90) (Instrumental) by Stony Pony.wav,soda pop,active,instrumental,2,90,multiply,6,10,60,68,63,67,0,4,4,0,0,30,30,91,,,,,,,,,,,,,,,,,,,,,,,,,,,,,,,502.5368229000014,502.5368229000014,502.5368229000014,502.5368229000014,502.5368229000014,0.00957479998760391,502.5368229000014,True,-0.08854166666666667,-0.3984375,1,0,0,ansTwo,,,,,,,,,,,,,,,,,2,2022-11-01_11h56.48.543,musicalMathTest,2022.2.0,60.015688101552,
music\active\instrumentals\Soda Pop (90) (Instrumental) by Stony Pony.wav,soda pop,active,instrumental,2,90,subtract,62,58,4,5,9,6,0,4,4,0,0,31,31,44,,,,,,,,,,,,,,,,,,,,,,,,,,,,,,,504.10472590000427,504.10472590000427,504.10472590000427,504.10472590000427,504.10472590000427,0.012401200001477264,504.10472590000427,True,-0.2916666666666667,-0.3997395833333333,1,0,0,ansOne,,,,,,,,,,,,,,,,,2,2022-11-01_11h56.48.543,musicalMathTest,2022.2.0,60.015688101552,
music\active\instrumentals\Soda Pop (90) (Instrumental) by Stony Pony.wav,soda pop,active,instrumental,2,90,multiply,14,10,140,146,141,143,0,4,4,0,0,32,32,74,,,,,,,,,,,,,,,,,,,,,,,,,,,,,,,506.6057853999955,506.6057853999955,506.6057853999955,506.6057853999955,506.6057853999955,0.012072700003045611,506.6057853999955,True,-0.2864583333333333,-0.40625,1,0,0,ansOne,,,,,,,,,,,,,,,,,2,2022-11-01_11h56.48.543,musicalMathTest,2022.2.0,60.015688101552,
music\active\instrumentals\Soda Pop (90) (Instrumental) by Stony Pony.wav,soda pop,active,instrumental,2,90,subtract,60,58,2,7,9,4,0,4,4,0,0,33,33,31,,,,,,,,,,,,,,,,,,,,,,,,,,,,,,,508.15648380000493,508.15648380000493,508.15648380000493,508.15648380000493,508.15648380000493,0.01258780001080595,508.15648380000493,True,0.10677083333333333,-0.4010416666666667,1,0,0,ansThree,,,,,,,,,,,,,,,,,2,2022-11-01_11h56.48.543,musicalMathTest,2022.2.0,60.015688101552,
music\active\instrumentals\Soda Pop (90) (Instrumental) by Stony Pony.wav,soda pop,active,instrumental,2,90,multiply,10,19,190,195,191,195,0,4,4,0,0,34,34,104,,,,,,,,,,,,,,,,,,,,,,,,,,,,,,,509.77478049999627,509.77478049999627,509.77478049999627,509.77478049999627,509.77478049999627,0.012405200002831407,509.77478049999627,True,0.09765625,-0.4127604166666667,1,0,0,ansThree,,,,,,,,,,,,,,,,,2,2022-11-01_11h56.48.543,musicalMathTest,2022.2.0,60.015688101552,
music\silence.wav,silent,silent,silent,2,90,multiply,13,2,26,30,33,37,0,5,5,9,0,0,0,117,,,,,,,,,,,,,,,,,,,,,,,,517.2336732999975,0.014069500000914559,-0.13411458333333334,-0.15885416666666666,1,0,0,526.0016286000027,526.0016286000027,526.0016286000027,526.0016286000027,526.0016286000027,0.02920609999273438,526.0016286000027,True,-0.10026041666666667,-0.3997395833333333,1,0,0,ansTwo,512.2310399999988,517.2336732999975,,,,,,,,,,,,,,,2,2022-11-01_11h56.48.543,musicalMathTest,2022.2.0,60.015688101552,
music\silence.wav,silent,silent,silent,2,90,multiply,5,10,50,52,58,56,0,5,5,9,0,1,1,110,,,,,,,,,,,,,,,,,,,,,,,,,,,,,,,528.1980026000092,528.1980026000092,528.1980026000092,528.1980026000092,528.1980026000092,0.009529499991913326,528.1980026000092,True,0.10026041666666667,-0.3997395833333333,1,0,0,ansThree,,,,,,,,,,,,,,,,,2,2022-11-01_11h56.48.543,musicalMathTest,2022.2.0,60.015688101552,
music\silence.wav,silent,silent,silent,2,90,subtract,41,33,8,16,12,16,0,5,5,9,0,2,2,32,,,,,,,,,,,,,,,,,,,,,,,,,,,,,,,529.4315444000094,529.4315444000094,529.4315444000094,529.4315444000094,529.4315444000094,0.010160799996810965,529.4315444000094,True,-0.10807291666666667,-0.4140625,1,0,0,ansTwo,,,,,,,,,,,,,,,,,2,2022-11-01_11h56.48.543,musicalMathTest,2022.2.0,60.015688101552,
music\silence.wav,silent,silent,silent,2,90,add,51,34,85,92,88,86,0,5,5,9,0,3,3,15,,,,,,,,,,,,,,,,,,,,,,,,,,,,,,,531.9322232999984,531.9322232999984,531.9322232999984,531.9322232999984,531.9322232999984,0.010896700012381189,531.9322232999984,True,-0.296875,-0.3919270833333333,1,0,0,ansOne,,,,,,,,,,,,,,,,,2,2022-11-01_11h56.48.543,musicalMathTest,2022.2.0,60.015688101552,
music\silence.wav,silent,silent,silent,2,90,subtract,59,41,18,25,26,22,0,5,5,9,0,4,4,56,,,,,,,,,,,,,,,,,,,,,,,,,,,,,,,536.4148297000065,536.4148297000065,536.4148297000065,536.4148297000065,536.4148297000065,0.010874999992665835,536.4148297000065,True,-0.08854166666666667,-0.4010416666666667,1,0,0,ansTwo,,,,,,,,,,,,,,,,,2,2022-11-01_11h56.48.543,musicalMathTest,2022.2.0,60.015688101552,
music\silence.wav,silent,silent,silent,2,90,multiply,2,7,14,16,17,22,0,5,5,9,0,5,5,88,,,,,,,,,,,,,,,,,,,,,,,,,,,,,,,538.6473484000016,538.6473484000016,538.6473484000016,538.6473484000016,538.6473484000016,0.008946399990236387,538.6473484000016,True,-0.10286458333333333,-0.3958333333333333,1,0,0,ansTwo,,,,,,,,,,,,,,,,,2,2022-11-01_11h56.48.543,musicalMathTest,2022.2.0,60.015688101552,
music\silence.wav,silent,silent,silent,2,90,add,61,59,120,123,125,128,0,5,5,9,0,6,6,12,,,,,,,,,,,,,,,,,,,,,,,,,,,,,,,539.8673307999998,539.8673307999998,539.8673307999998,539.8673307999998,539.8673307999998,0.012609299999894574,539.8673307999998,True,-0.11458333333333333,-0.3971354166666667,1,0,0,ansTwo,,,,,,,,,,,,,,,,,2,2022-11-01_11h56.48.543,musicalMathTest,2022.2.0,60.015688101552,
music\silence.wav,silent,silent,silent,2,90,multiply,13,10,130,131,140,131,0,5,5,9,0,7,7,77,,,,,,,,,,,,,,,,,,,,,,,,,,,,,,,541.9281285000034,541.9281285000034,541.9281285000034,541.9281285000034,541.9281285000034,0.00924440000380855,541.9281285000034,True,-0.11458333333333333,-0.3971354166666667,1,0,0,ansTwo,,,,,,,,,,,,,,,,,2,2022-11-01_11h56.48.543,musicalMathTest,2022.2.0,60.015688101552,
music\silence.wav,silent,silent,silent,2,90,subtract,52,51,1,2,4,7,0,5,5,9,0,8,8,54,,,,,,,,,,,,,,,,,,,,,,,,,,,,,,,543.2629014999984,543.2629014999984,543.2629014999984,543.2629014999984,543.2629014999984,0.010572799990768544,543.2629014999984,True,-0.2955729166666667,-0.3932291666666667,1,0,0,ansOne,,,,,,,,,,,,,,,,,2,2022-11-01_11h56.48.543,musicalMathTest,2022.2.0,60.015688101552,
music\silence.wav,silent,silent,silent,2,90,multiply,10,7,70,76,72,73,0,5,5,9,0,9,9,104,,,,,,,,,,,,,,,,,,,,,,,,,,,,,,,545.9623245999974,545.9623245999974,545.9623245999974,545.9623245999974,545.9623245999974,0.00938680001127068,545.9623245999974,True,-0.3125,-0.390625,1,0,0,ansOne,,,,,,,,,,,,,,,,,2,2022-11-01_11h56.48.543,musicalMathTest,2022.2.0,60.015688101552,
music\silence.wav,silent,silent,silent,2,90,multiply,5,13,65,70,73,71,0,5,5,9,0,10,10,113,,,,,,,,,,,,,,,,,,,,,,,,,,,,,,,547.5289464000089,547.5289464000089,547.5289464000089,547.5289464000089,547.5289464000089,0.010113100011949427,547.5289464000089,True,0.10026041666666667,-0.3919270833333333,1,0,0,ansThree,,,,,,,,,,,,,,,,,2,2022-11-01_11h56.48.543,musicalMathTest,2022.2.0,60.015688101552,
music\silence.wav,silent,silent,silent,2,90,multiply,20,5,100,106,108,105,0,5,5,9,0,11,11,83,,,,,,,,,,,,,,,,,,,,,,,,,,,,,,,549.8805958000012,549.8805958000012,549.8805958000012,549.8805958000012,549.8805958000012,0.011133599997265264,549.8805958000012,True,-0.09895833333333333,-0.4114583333333333,1,0,0,ansTwo,,,,,,,,,,,,,,,,,2,2022-11-01_11h56.48.543,musicalMathTest,2022.2.0,60.015688101552,
music\silence.wav,silent,silent,silent,2,90,multiply,7,5,35,37,43,41,0,5,5,9,0,12,12,100,,,,,,,,,,,,,,,,,,,,,,,,,,,,,,,551.7121058000048,551.7121058000048,551.7121058000048,551.7121058000048,551.7121058000048,0.009651500004110858,551.7121058000048,True,0.08333333333333333,-0.40625,1,0,0,ansThree,,,,,,,,,,,,,,,,,2,2022-11-01_11h56.48.543,musicalMathTest,2022.2.0,60.015688101552,
music\silence.wav,silent,silent,silent,2,90,subtract,46,41,5,10,11,15,0,5,5,9,0,13,13,52,,,,,,,,,,,,,,,,,,,,,,,,,,,,,,,553.5471812000033,553.5471812000033,553.5471812000033,553.5471812000033,553.5471812000033,0.013025699998252094,553.5471812000033,True,0.09765625,-0.3984375,1,0,0,ansThree,,,,,,,,,,,,,,,,,2,2022-11-01_11h56.48.543,musicalMathTest,2022.2.0,60.015688101552,
music\silence.wav,silent,silent,silent,2,90,multiply,20,10,200,202,206,204,0,5,5,9,0,14,14,91,,,,,,,,,,,,,,,,,,,,,,,,,,,,,,,554.9840035000088,554.9840035000088,554.9840035000088,554.9840035000088,554.9840035000088,0.013322999991942197,554.9840035000088,True,-0.09765625,-0.3997395833333333,1,0,0,ansTwo,,,,,,,,,,,,,,,,,2,2022-11-01_11h56.48.543,musicalMathTest,2022.2.0,60.015688101552,
music\silence.wav,silent,silent,silent,2,90,multiply,2,20,40,41,43,42,0,5,5,9,0,15,15,87,,,,,,,,,,,,,,,,,,,,,,,,,,,,,,,556.7630931000022,556.7630931000022,556.7630931000022,556.7630931000022,556.7630931000022,0.009761499997694045,556.7630931000022,True,-0.3098958333333333,-0.4075520833333333,1,0,0,ansOne,,,,,,,,,,,,,,,,,2,2022-11-01_11h56.48.543,musicalMathTest,2022.2.0,60.015688101552,
music\silence.wav,silent,silent,silent,2,90,add,46,41,87,93,95,99,0,5,5,9,0,16,16,21,,,,,,,,,,,,,,,,,,,,,,,,,,,,,,,558.5962942000042,558.5962942000042,558.5962942000042,558.5962942000042,558.5962942000042,0.013026500004343688,558.5962942000042,True,-0.2877604166666667,-0.3893229166666667,1,0,0,ansOne,,,,,,,,,,,,,,,,,2,2022-11-01_11h56.48.543,musicalMathTest,2022.2.0,60.015688101552,
music\silence.wav,silent,silent,silent,2,90,subtract,60,59,1,5,7,5,0,5,5,9,0,17,17,34,,,,,,,,,,,,,,,,,,,,,,,,,,,,,,,561.3441281999985,561.3441281999985,561.3441281999985,561.3441281999985,561.3441281999985,0.011635200004093349,561.3441281999985,True,-0.09375,-0.3958333333333333,1,0,0,ansTwo,,,,,,,,,,,,,,,,,2,2022-11-01_11h56.48.543,musicalMathTest,2022.2.0,60.015688101552,
music\silence.wav,silent,silent,silent,2,90,multiply,20,10,200,208,201,208,0,5,5,9,0,18,18,67,,,,,,,,,,,,,,,,,,,,,,,,,,,,,,,562.9112711000053,562.9112711000053,562.9112711000053,562.9112711000053,562.9112711000053,0.011233899989747442,562.9112711000053,True,-0.09244791666666667,-0.3958333333333333,1,0,0,ansTwo,,,,,,,,,,,,,,,,,2,2022-11-01_11h56.48.543,musicalMathTest,2022.2.0,60.015688101552,
music\silence.wav,silent,silent,silent,2,90,multiply,10,13,130,135,137,140,0,5,5,9,0,19,19,105,,,,,,,,,,,,,,,,,,,,,,,,,,,,,,,564.8315910000092,564.8315910000092,564.8315910000092,564.8315910000092,564.8315910000092,0.014491599999018945,564.8315910000092,True,-0.2994791666666667,-0.3919270833333333,1,0,0,ansOne,,,,,,,,,,,,,,,,,2,2022-11-01_11h56.48.543,musicalMathTest,2022.2.0,60.015688101552,
music\silence.wav,silent,silent,silent,2,90,add,50,46,96,98,101,99,0,5,5,9,0,20,20,18,,,,,,,,,,,,,,,,,,,,,,,,,,,,,,,566.3802018999995,566.3802018999995,566.3802018999995,566.3802018999995,566.3802018999995,0.014710400006151758,566.3802018999995,True,0.10416666666666667,-0.3971354166666667,1,0,0,ansThree,,,,,,,,,,,,,,,,,2,2022-11-01_11h56.48.543,musicalMathTest,2022.2.0,60.015688101552,
music\silence.wav,silent,silent,silent,2,90,add,48,47,95,96,98,105,0,5,5,9,0,21,21,24,,,,,,,,,,,,,,,,,,,,,,,,,,,,,,,568.9424483000039,568.9424483000039,568.9424483000039,568.9424483000039,568.9424483000039,0.009472800011280924,568.9424483000039,True,-0.08463541666666667,-0.39453125,1,0,0,ansTwo,,,,,,,,,,,,,,,,,2,2022-11-01_11h56.48.543,musicalMathTest,2022.2.0,60.015688101552,
music\silence.wav,silent,silent,silent,2,90,subtract,47,46,1,6,4,8,0,5,5,9,0,22,22,61,,,,,,,,,,,,,,,,,,,,,,,,,,,,,,,571.2910331000021,571.2910331000021,571.2910331000021,571.2910331000021,571.2910331000021,0.010015099993324839,571.2910331000021,True,0.09635416666666667,-0.3997395833333333,1,0,0,ansThree,,,,,,,,,,,,,,,,,2,2022-11-01_11h56.48.543,musicalMathTest,2022.2.0,60.015688101552,
music\silence.wav,silent,silent,silent,2,90,add,52,51,103,106,108,104,0,5,5,9,0,23,23,27,,,,,,,,,,,,,,,,,,,,,,,,,,,,,,,573.0574760000018,573.0574760000018,573.0574760000018,573.0574760000018,573.0574760000018,0.009665599995059893,573.0574760000018,True,-0.2734375,-0.3854166666666667,1,0,0,ansOne,,,,,,,,,,,,,,,,,2,2022-11-01_11h56.48.543,musicalMathTest,2022.2.0,60.015688101552,
music\silence.wav,silent,silent,silent,2,90,multiply,10,13,130,133,135,139,0,5,5,9,0,24,24,97,,,,,,,,,,,,,,,,,,,,,,,,,,,,,,,575.9404853000015,575.9404853000015,575.9404853000015,575.9404853000015,575.9404853000015,0.009761399996932596,575.9404853000015,True,0.11458333333333333,-0.3932291666666667,1,0,0,ansThree,,,,,,,,,,,,,,,,,2,2022-11-01_11h56.48.543,musicalMathTest,2022.2.0,60.015688101552,
music\silence.wav,silent,silent,silent,2,90,subtract,48,47,1,8,10,7,0,5,5,9,0,25,25,55,,,,,,,,,,,,,,,,,,,,,,,,,,,,,,,578.0587837000057,578.0587837000057,578.0587837000057,578.0587837000057,578.0587837000057,0.010938199993688613,578.0587837000057,True,-0.2916666666666667,-0.4088541666666667,1,0,0,ansOne,,,,,,,,,,,,,,,,,2,2022-11-01_11h56.48.543,musicalMathTest,2022.2.0,60.015688101552,
music\silence.wav,silent,silent,silent,2,90,add,51,47,98,102,105,108,0,5,5,9,0,26,26,20,,,,,,,,,,,,,,,,,,,,,,,,,,,,,,,579.9748658000026,579.9748658000026,579.9748658000026,579.9748658000026,579.9748658000026,0.011447899989434518,579.9748658000026,True,0.09895833333333333,-0.40234375,1,0,0,ansThree,,,,,,,,,,,,,,,,,2,2022-11-01_11h56.48.543,musicalMathTest,2022.2.0,60.015688101552,
music\silence.wav,silent,silent,silent,2,90,add,60,59,119,124,127,124,0,5,5,9,0,27,27,3,,,,,,,,,,,,,,,,,,,,,,,,,,,,,,,582.0270485000074,582.0270485000074,582.0270485000074,582.0270485000074,582.0270485000074,0.01262249999854248,582.0270485000074,True,0.08072916666666667,-0.4010416666666667,1,0,0,ansThree,,,,,,,,,,,,,,,,,2,2022-11-01_11h56.48.543,musicalMathTest,2022.2.0,60.015688101552,
music\silence.wav,silent,silent,silent,2,90,multiply,2,13,26,27,29,36,0,5,5,9,0,28,28,89,,,,,,,,,,,,,,,,,,,,,,,,,,,,,,,586.9274120000046,586.9274120000046,586.9274120000046,586.9274120000046,586.9274120000046,0.08039969998935703,586.9274120000046,True,-0.29296875,-0.39453125,1,0,0,ansOne,,,,,,,,,,,,,,,,,2,2022-11-01_11h56.48.543,musicalMathTest,2022.2.0,60.015688101552,
music\silence.wav,silent,silent,silent,2,90,subtract,59,46,13,20,19,18,0,5,5,9,0,29,29,53,,,,,,,,,,,,,,,,,,,,,,,,,,,,,,,588.3740889000037,588.3740889000037,588.3740889000037,588.3740889000037,588.3740889000037,0.011844699998619035,588.3740889000037,True,0.08463541666666667,-0.3997395833333333,1,0,0,ansThree,,,,,,,,,,,,,,,,,2,2022-11-01_11h56.48.543,musicalMathTest,2022.2.0,60.015688101552,
music\silence.wav,silent,silent,silent,2,90,multiply,10,5,50,56,57,54,0,5,5,9,0,30,30,82,,,,,,,,,,,,,,,,,,,,,,,,,,,,,,,590.424636900003,590.424636900003,590.424636900003,590.424636900003,590.424636900003,0.01118980000319425,590.424636900003,True,-0.3046875,-0.3958333333333333,1,0,0,ansOne,,,,,,,,,,,,,,,,,2,2022-11-01_11h56.48.543,musicalMathTest,2022.2.0,60.015688101552,
music\silence.wav,silent,silent,silent,2,90,subtract,41,34,7,9,13,11,0,5,5,9,0,31,31,36,,,,,,,,,,,,,,,,,,,,,,,,,,,,,,,591.7867958999996,591.7867958999996,591.7867958999996,591.7867958999996,591.7867958999996,0.00954900000942871,591.7867958999996,True,-0.10286458333333333,-0.3971354166666667,1,0,0,ansTwo,,,,,,,,,,,,,,,,,2,2022-11-01_11h56.48.543,musicalMathTest,2022.2.0,60.015688101552,
music\silence.wav,silent,silent,silent,2,90,multiply,13,10,130,133,134,137,0,5,5,9,0,32,32,109,,,,,,,,,,,,,,,,,,,,,,,,,,,,,,,593.4877302000095,593.4877302000095,593.4877302000095,593.4877302000095,593.4877302000095,0.009646299993619323,593.4877302000095,True,-0.09114583333333333,-0.3984375,1,0,0,ansTwo,,,,,,,,,,,,,,,,,2,2022-11-01_11h56.48.543,musicalMathTest,2022.2.0,60.015688101552,
music\silence.wav,silent,silent,silent,2,90,multiply,5,10,50,54,53,54,0,5,5,9,0,33,33,70,,,,,,,,,,,,,,,,,,,,,,,,,,,,,,,594.9560885999963,594.9560885999963,594.9560885999963,594.9560885999963,594.9560885999963,0.01203430000168737,594.9560885999963,True,-0.1171875,-0.3919270833333333,1,0,0,ansTwo,,,,,,,,,,,,,,,,,2,2022-11-01_11h56.48.543,musicalMathTest,2022.2.0,60.015688101552,
music\silence.wav,silent,silent,silent,2,90,subtract,51,34,17,20,21,23,0,5,5,9,0,34,34,46,,,,,,,,,,,,,,,,,,,,,,,,,,,,,,,595.9371053000068,595.9371053000068,595.9371053000068,595.9371053000068,595.9371053000068,0.01006020000204444,595.9371053000068,True,0.08723958333333333,-0.4036458333333333,1,0,0,ansThree,,,,,,,,,,,,,,,,,2,2022-11-01_11h56.48.543,musicalMathTest,2022.2.0,60.015688101552,
music\silence.wav,silent,silent,silent,2,90,add,50,46,96,106,97,106,0,5,5,9,0,35,35,26,,,,,,,,,,,,,,,,,,,,,,,,,,,,,,,598.3572084000043,598.3572084000043,598.3572084000043,598.3572084000043,598.3572084000043,0.012955299986060709,598.3572084000043,True,0.11067708333333333,-0.41015625,1,0,0,ansThree,,,,,,,,,,,,,,,,,2,2022-11-01_11h56.48.543,musicalMathTest,2022.2.0,60.015688101552,
music\silence.wav,silent,silent,silent,2,90,multiply,20,2,40,45,50,54,0,5,5,9,0,36,36,115,,,,,,,,,,,,,,,,,,,,,,,,,,,,,,,600.2590437000035,600.2590437000035,600.2590437000035,600.2590437000035,600.2590437000035,0.01375900000857655,600.2590437000035,True,-0.296875,-0.4010416666666667,1,0,0,ansOne,,,,,,,,,,,,,,,,,2,2022-11-01_11h56.48.543,musicalMathTest,2022.2.0,60.015688101552,
music\silence.wav,silent,silent,silent,2,90,subtract,46,12,34,38,24,42,0,5,5,9,0,37,37,41,,,,,,,,,,,,,,,,,,,,,,,,,,,,,,,601.7868329000048,601.7868329000048,601.7868329000048,601.7868329000048,601.7868329000048,0.009357999995700084,601.7868329000048,True,0.11197916666666667,-0.4010416666666667,1,0,0,ansThree,,,,,,,,,,,,,,,,,2,2022-11-01_11h56.48.543,musicalMathTest,2022.2.0,60.015688101552,
music\silence.wav,silent,silent,silent,2,90,subtract,42,41,1,8,10,2,0,5,5,9,0,38,38,60,,,,,,,,,,,,,,,,,,,,,,,,,,,,,,,604.1431631000014,604.1431631000014,604.1431631000014,604.1431631000014,604.1431631000014,0.013551900003221817,604.1431631000014,True,-0.2955729166666667,-0.4075520833333333,1,0,0,ansOne,,,,,,,,,,,,,,,,,2,2022-11-01_11h56.48.543,musicalMathTest,2022.2.0,60.015688101552,
music\active\vocals\Someone Like You (90) (Chorus Vocals) by Poison Beaches.wav,someone like you,active,vocals,2,90,multiply,4,2,8,13,11,13,0,6,6,1,0,0,0,116,,,,,,,,,,,,,,,,,,,,,,,,613.3487400000013,0.00912590000370983,-0.04296875,-0.125,1,0,0,616.7080244999961,616.7080244999961,616.7080244999961,616.7080244999961,616.7080244999961,0.02908999999635853,616.7080244999961,True,0.109375,-0.4075520833333333,1,0,0,ansThree,608.3486988000077,613.3487400000013,,,,,,,,,,,,,,,2,2022-11-01_11h56.48.543,musicalMathTest,2022.2.0,60.015688101552,
music\active\vocals\Someone Like You (90) (Chorus Vocals) by Poison Beaches.wav,someone like you,active,vocals,2,90,multiply,10,15,150,155,156,160,0,6,6,1,0,1,1,95,,,,,,,,,,,,,,,,,,,,,,,,,,,,,,,618.9873728999955,618.9873728999955,618.9873728999955,618.9873728999955,618.9873728999955,0.013240100000984967,618.9873728999955,True,0.09505208333333333,-0.3984375,1,0,0,ansThree,,,,,,,,,,,,,,,,,2,2022-11-01_11h56.48.543,musicalMathTest,2022.2.0,60.015688101552,
music\active\vocals\Someone Like You (90) (Chorus Vocals) by Poison Beaches.wav,someone like you,active,vocals,2,90,add,55,39,94,96,102,106,0,6,6,1,0,2,2,5,,,,,,,,,,,,,,,,,,,,,,,,,,,,,,,620.6220853999985,620.6220853999985,620.6220853999985,620.6220853999985,620.6220853999985,0.013693999993847683,620.6220853999985,True,-0.3138020833333333,-0.39453125,1,0,0,ansOne,,,,,,,,,,,,,,,,,2,2022-11-01_11h56.48.543,musicalMathTest,2022.2.0,60.015688101552,
music\active\vocals\Someone Like You (90) (Chorus Vocals) by Poison Beaches.wav,someone like you,active,vocals,2,90,multiply,10,4,40,48,45,46,0,6,6,1,0,3,3,80,,,,,,,,,,,,,,,,,,,,,,,,,,,,,,,627.6478181999992,627.6478181999992,627.6478181999992,627.6478181999992,627.6478181999992,0.009168600008706562,627.6478181999992,True,-0.2994791666666667,-0.40625,1,0,0,ansOne,,,,,,,,,,,,,,,,,2,2022-11-01_11h56.48.543,musicalMathTest,2022.2.0,60.015688101552,
music\active\vocals\Someone Like You (90) (Chorus Vocals) by Poison Beaches.wav,someone like you,active,vocals,2,90,add,37,16,53,55,57,54,0,6,6,1,0,4,4,3,,,,,,,,,,,,,,,,,,,,,,,,,,,,,,,629.2490765999974,629.2490765999974,629.2490765999974,629.2490765999974,629.2490765999974,0.010059899999760091,629.2490765999974,True,-0.3033854166666667,-0.40234375,1,0,0,ansOne,,,,,,,,,,,,,,,,,2,2022-11-01_11h56.48.543,musicalMathTest,2022.2.0,60.015688101552,
music\active\vocals\Someone Like You (90) (Chorus Vocals) by Poison Beaches.wav,someone like you,active,vocals,2,90,multiply,5,3,15,23,25,23,0,6,6,1,0,5,5,110,,,,,,,,,,,,,,,,,,,,,,,,,,,,,,,632.7822848000069,632.7822848000069,632.7822848000069,632.7822848000069,632.7822848000069,0.010898599997744896,632.7822848000069,True,0.10026041666666667,-0.4127604166666667,1,0,0,ansThree,,,,,,,,,,,,,,,,,2,2022-11-01_11h56.48.543,musicalMathTest,2022.2.0,60.015688101552,
music\active\vocals\Someone Like You (90) (Chorus Vocals) by Poison Beaches.wav,someone like you,active,vocals,2,90,add,16,15,31,35,34,38,0,6,6,1,0,6,6,14,,,,,,,,,,,,,,,,,,,,,,,,,,,,,,,634.531690200005,634.531690200005,634.531690200005,634.531690200005,634.531690200005,0.010049599994090386,634.531690200005,True,-0.1015625,-0.40625,1,0,0,ansTwo,,,,,,,,,,,,,,,,,2,2022-11-01_11h56.48.543,musicalMathTest,2022.2.0,60.015688101552,
music\active\vocals\Someone Like You (90) (Chorus Vocals) by Poison Beaches.wav,someone like you,active,vocals,2,90,add,55,15,70,77,71,72,0,6,6,1,0,7,7,1,,,,,,,,,,,,,,,,,,,,,,,,,,,,,,,636.454854399999,636.454854399999,636.454854399999,636.454854399999,636.454854399999,0.01277509999636095,636.454854399999,True,-0.2942708333333333,-0.390625,1,0,0,ansOne,,,,,,,,,,,,,,,,,2,2022-11-01_11h56.48.543,musicalMathTest,2022.2.0,60.015688101552,
music\active\vocals\Someone Like You (90) (Chorus Vocals) by Poison Beaches.wav,someone like you,active,vocals,2,90,add,55,19,74,82,77,81,0,6,6,1,0,8,8,13,,,,,,,,,,,,,,,,,,,,,,,,,,,,,,,638.2810419000016,638.2810419000016,638.2810419000016,638.2810419000016,638.2810419000016,0.009729499986860901,638.2810419000016,False,-0.2942708333333333,-0.3971354166666667,1,0,0,ansOne,,,,,,,,,,,,,,,,,2,2022-11-01_11h56.48.543,musicalMathTest,2022.2.0,60.015688101552,
music\active\vocals\Someone Like You (90) (Chorus Vocals) by Poison Beaches.wav,someone like you,active,vocals,2,90,subtract,19,19,0,2,1,8,0,6,6,1,0,9,9,41,,,,,,,,,,,,,,,,,,,,,,,,,,,,,,,638.8973630999972,638.8973630999972,638.8973630999972,638.8973630999972,638.8973630999972,0.00888590000977274,638.8973630999972,True,0.10546875,-0.39453125,1,0,0,ansThree,,,,,,,,,,,,,,,,,2,2022-11-01_11h56.48.543,musicalMathTest,2022.2.0,60.015688101552,
music\active\vocals\Someone Like You (90) (Chorus Vocals) by Poison Beaches.wav,someone like you,active,vocals,2,90,multiply,4,5,20,26,30,28,0,6,6,1,0,10,10,84,,,,,,,,,,,,,,,,,,,,,,,,,,,,,,,640.5801459000068,640.5801459000068,640.5801459000068,640.5801459000068,640.5801459000068,0.01000009999552276,640.5801459000068,True,-0.2955729166666667,-0.39453125,1,0,0,ansOne,,,,,,,,,,,,,,,,,2,2022-11-01_11h56.48.543,musicalMathTest,2022.2.0,60.015688101552,
music\active\vocals\Someone Like You (90) (Chorus Vocals) by Poison Beaches.wav,someone like you,active,vocals,2,90,add,25,23,48,49,54,58,0,6,6,1,0,11,11,20,,,,,,,,,,,,,,,,,,,,,,,,,,,,,,,642.035524100007,642.035524100007,642.035524100007,642.035524100007,642.035524100007,0.01255650000530295,642.035524100007,True,-0.31640625,-0.3984375,1,0,0,ansOne,,,,,,,,,,,,,,,,,2,2022-11-01_11h56.48.543,musicalMathTest,2022.2.0,60.015688101552,
music\active\vocals\Someone Like You (90) (Chorus Vocals) by Poison Beaches.wav,someone like you,active,vocals,2,90,multiply,2,15,30,31,33,35,0,6,6,1,0,12,12,87,,,,,,,,,,,,,,,,,,,,,,,,,,,,,,,644.8313977000071,644.8313977000071,644.8313977000071,644.8313977000071,644.8313977000071,0.01169590000063181,644.8313977000071,True,0.09895833333333333,-0.4049479166666667,1,0,0,ansThree,,,,,,,,,,,,,,,,,2,2022-11-01_11h56.48.543,musicalMathTest,2022.2.0,60.015688101552,
music\active\vocals\Someone Like You (90) (Chorus Vocals) by Poison Beaches.wav,someone like you,active,vocals,2,90,subtract,37,16,21,28,11,15,0,6,6,1,0,13,13,34,,,,,,,,,,,,,,,,,,,,,,,,,,,,,,,646.3643978000036,646.3643978000036,646.3643978000036,646.3643978000036,646.3643978000036,0.009174399994662963,646.3643978000036,True,-0.2955729166666667,-0.40625,1,0,0,ansOne,,,,,,,,,,,,,,,,,2,2022-11-01_11h56.48.543,musicalMathTest,2022.2.0,60.015688101552,
